# label=flexion
# trial=5
# subject=handback_single
# captured_at=20260412_030553
# sensor_count=1
ts_ms,ax,ay,az,gx,gy,gz
21306,166,362,-7972,761,-215,157
21316,184,310,-7890,846,-269,173
21326,124,298,-7972,942,-282,169
21336,172,260,-7934,1012,-260,165
21346,210,266,-7956,1023,-213,140
21356,208,312,-7932,996,-156,121
21366,196,290,-7926,926,-105,115
21376,142,304,-7850,829,-76,114
21386,158,302,-7788,736,-65,131
21396,172,350,-7848,696,-41,162
21406,228,354,-7828,736,-15,182
21416,284,352,-7876,838,-21,179
21426,286,338,-7858,964,-77,172
21436,244,304,-7932,1081,-177,147
21446,210,324,-7918,1156,-268,108
21456,226,346,-8038,1207,-180,50
21466,226,346,-8038,1207,-180,50
21476,256,264,-8094,1143,-6,67
21486,332,270,-8114,1100,10,82
21496,342,248,-8140,1054,-8,93
21506,368,278,-8152,1014,-73,100
21516,316,244,-8142,989,-174,92
21526,220,270,-8064,975,-302,69
21536,200,300,-8066,967,-403,41
21547,182,298,-8020,968,-410,35
21557,180,276,-8020,955,-317,56
21567,170,314,-7976,913,-211,66
21577,162,320,-7958,874,-145,61
21587,220,336,-8030,860,-110,59
21597,236,308,-7954,876,-68,66
21607,284,320,-7998,912,-53,89
21617,260,282,-7956,941,-84,103
21627,240,260,-7970,934,-177,109
21637,288,292,-7994,916,-265,110
21647,190,250,-8018,904,-309,100
21657,136,318,-7948,889,-303,88
21667,152,354,-7912,892,-272,103
21677,174,338,-7970,923,-232,139
21687,122,318,-7976,978,-220,185
21697,196,296,-7986,1015,-237,189
21707,278,288,-8010,1029,-257,189
21718,312,338,-8060,1021,-266,193
21728,300,340,-8088,1012,-277,195
21738,232,324,-8018,1011,-303,170
21748,190,316,-8064,1013,-348,142
21758,152,316,-8060,1006,-358,120
21768,202,276,-8010,967,-290,97
21778,182,278,-8030,931,-180,96
21788,200,314,-8030,888,-80,91
21798,224,284,-8010,863,-46,100
21808,290,306,-7982,875,-87,126
21818,276,332,-7900,904,-180,138
21828,268,304,-7918,938,-300,139
21838,296,330,-7956,985,-384,147
21848,200,272,-7966,1044,-417,147
21858,212,270,-8036,1087,-403,122
21868,166,262,-7956,1099,-340,88
21878,208,292,-8064,1022,-192,93
21888,208,292,-8064,1022,-192,93
21898,296,310,-8072,918,-73,120
21908,288,306,-8010,935,-39,129
21918,292,320,-8002,956,-75,143
21928,300,278,-8082,986,-170,138
21938,262,316,-8042,1018,-263,123
21948,344,308,-8062,1035,-313,124
21958,364,336,-8012,1035,-332,138
21968,282,330,-8080,1022,-363,143
21978,234,328,-8086,991,-371,128
21988,214,280,-8122,934,-342,102
21998,136,254,-8044,878,-267,63
22008,142,270,-8092,822,-124,33
22018,168,256,-8074,778,55,35
22028,262,304,-8024,744,208,46
22038,248,322,-7982,738,242,63
22048,218,338,-7992,787,172,70
22059,250,346,-7986,865,30,90
22069,250,298,-7976,954,-139,100
22079,164,280,-8000,1018,-266,105
22089,162,260,-8012,1009,-280,112
22099,168,264,-7980,976,-204,124
22109,158,278,-8038,901,-75,141
22119,236,254,-8036,829,68,155
22129,284,288,-8000,795,179,153
22139,342,296,-7940,814,210,132
22149,332,354,-7994,863,138,119
22159,318,348,-8016,929,22,108
22169,272,318,-7960,990,-105,110
22179,236,278,-8024,1022,-196,113
22189,246,184,-8014,1015,-218,128
22199,228,248,-8050,961,-172,147
22209,240,274,-8062,898,-107,165
22219,278,322,-8044,882,-13,159
22230,364,356,-8074,870,144,152
22240,376,330,-8022,881,164,159
22250,456,312,-8076,942,17,152
22260,482,286,-8032,1013,-155,142
22270,444,278,-8012,1080,-486,178
22280,444,278,-8012,1080,-486,178
22290,394,248,-8104,1063,-563,199
22300,358,270,-8090,971,-550,156
22310,328,250,-8074,911,-452,129
22320,266,294,-7986,857,-337,114
22330,348,308,-8002,817,-178,76
22340,432,374,-7978,798,0,42
22350,420,382,-7950,815,71,26
22360,438,354,-7938,821,32,29
22370,344,364,-7920,835,-85,27
22380,356,350,-7936,865,-202,35
22390,270,332,-7892,913,-266,42
22400,200,310,-7866,948,-240,45
22410,166,314,-7978,991,-147,37
22420,192,260,-7976,1024,-27,43
22430,246,254,-7942,1027,44,52
22440,294,262,-7962,1021,51,56
22450,328,296,-7962,1008,7,46
22460,410,284,-7996,992,-50,33
22470,384,306,-7964,995,-127,37
22480,380,314,-7992,1025,-241,46
22490,356,238,-7962,1081,-391,55
22500,280,236,-8004,1147,-522,72
22510,268,242,-8036,1186,-590,86
22520,230,228,-8032,1193,-587,101
22530,180,236,-8024,1159,-523,113
22540,142,238,-8004,1080,-400,115
22550,202,300,-7938,965,-252,108
22560,290,366,-8002,861,-101,105
22571,314,388,-7908,817,7,122
22581,354,330,-7912,858,21,147
22591,308,352,-7960,977,-73,152
22601,296,320,-7994,1132,-242,140
22611,228,272,-8068,1279,-372,136
22621,188,242,-8088,1341,-386,141
22631,254,258,-8070,1320,-323,136
22641,302,270,-8134,1248,-194,152
22651,334,266,-8130,1149,-112,160
22661,372,312,-8006,1075,-105,160
22671,296,270,-8078,1003,-137,148
22681,332,272,-8088,943,-200,120
22691,376,292,-8134,904,-172,91
22701,422,256,-8042,901,-63,92
22711,458,258,-8086,921,24,97
22721,460,184,-8080,951,5,103
22731,414,194,-8068,976,-142,102
22742,302,180,-8018,957,-517,104
22752,200,164,-8002,912,-505,123
22762,212,198,-7998,850,-354,150
22772,290,192,-7924,793,-136,151
22782,334,272,-8004,770,50,137
22792,364,260,-7914,803,123,113
22802,446,254,-8000,878,58,109
22812,452,270,-7962,967,-92,103
22822,390,242,-7940,1047,-289,96
22832,342,214,-7984,1088,-445,104
22842,244,208,-7988,1054,-497,107
22852,208,188,-7960,963,-446,119
22862,194,216,-7962,854,-306,136
22872,232,278,-7958,761,-107,142
22882,334,282,-7978,705,85,117
22892,412,298,-7930,690,190,101
22902,468,304,-7928,715,177,113
22912,478,340,-7946,777,56,110
22922,480,362,-7948,858,-134,113
22932,420,376,-8016,949,-321,131
22942,352,322,-8066,1032,-445,146
22952,330,216,-8118,1095,-500,155
22962,306,130,-8192,1091,-493,158
22972,328,164,-8144,1041,-456,150
22982,322,170,-8170,956,-389,141
22992,328,208,-8082,864,-326,147
23002,386,280,-8072,812,-277,160
23012,420,286,-8008,794,-263,156
23022,382,320,-7988,821,-317,150
23032,372,294,-8038,875,-404,125
23042,356,328,-8032,923,-481,106
23052,282,350,-8000,949,-515,107
23062,210,352,-8046,955,-486,105
23072,172,338,-8036,966,-396,94
23083,182,284,-8048,976,-293,82
23093,174,252,-8132,995,-243,77
23103,174,214,-8116,983,-238,74
23113,174,262,-8136,940,-243,81
23123,160,312,-8064,892,-240,99
23133,200,242,-8092,840,-236,135
23143,186,282,-8082,806,-242,189
23153,196,298,-8000,826,-252,224
23163,218,268,-8038,954,-308,248
23173,218,268,-8038,954,-308,248
23183,250,230,-8120,993,-344,254
23193,266,180,-8132,960,-333,238
23203,258,186,-8070,883,-322,226
23213,252,222,-8052,810,-276,216
23223,230,242,-8024,748,-245,219
23233,216,282,-7998,715,-225,219
23243,250,312,-7968,708,-194,230
23254,306,314,-7998,726,-155,246
23264,308,268,-7932,753,-135,243
23274,290,332,-7990,771,-137,251
23284,306,334,-7906,792,-141,251
23294,256,288,-7960,813,-169,228
23304,268,318,-7900,826,-197,223
23314,272,306,-7918,847,-195,222
23324,334,316,-7888,872,-144,220
23334,336,270,-7982,890,-112,232
23344,342,274,-7960,889,-105,228
23354,366,276,-7962,877,-141,219
23364,314,332,-7896,862,-189,223
23374,308,300,-7906,850,-200,231
23384,302,344,-7908,850,-213,230
23394,310,372,-7866,872,-201,241
23404,286,412,-7862,921,-156,249
23414,290,382,-7846,977,-137,254
23424,276,426,-7912,1033,-113,264
23434,322,398,-7892,1064,-96,275
23444,316,336,-7998,1073,-82,266
23454,390,278,-8064,1075,-69,254
23464,444,326,-8130,1073,-63,227
23474,446,280,-8242,1087,-55,203
23484,442,260,-8166,1067,-82,168
23494,384,234,-8182,1007,-132,144
23504,382,208,-8236,917,-173,142
23514,380,260,-8180,806,-158,150
23524,372,290,-8134,729,-126,152
23534,402,272,-8186,685,-94,152
23544,354,288,-8160,670,-106,139
23554,318,304,-8110,678,-139,114
23564,294,318,-8100,677,-131,116
23574,290,376,-8100,634,-78,132
23584,266,384,-8124,569,-56,158
23595,298,372,-8070,497,-3,189
23605,308,326,-7982,243,46,301
23615,410,290,-8028,-84,-32,368
23625,338,242,-7972,-595,-156,421
23635,274,218,-8048,-1272,-232,493
23645,90,276,-7968,-2042,-321,551
23655,152,260,-7890,-2933,-378,581
23665,58,340,-7880,-4035,-110,600
23675,14,596,-7734,-5226,210,646
23685,18,1176,-7702,-6460,783,760
23695,300,1756,-7584,-7307,1728,873
23705,410,2688,-7096,-6625,2923,729
23715,938,3544,-7294,-2861,4263,316
23725,1554,3890,-7488,3802,5538,-555
23735,2692,3904,-8038,12153,5925,-1316
23745,2602,2960,-6608,19630,4735,-2061
23755,2770,750,-5004,26523,1488,-3458
23766,1678,-468,-3636,-32125,-1968,-4830
23776,1826,-2270,-2326,-31775,-4031,-6430
23786,1696,-3816,-1906,-31775,-4652,-8598
23796,756,-5140,-2596,-31775,-4757,-9882
23806,958,-5668,-3238,-31775,-5011,-10585
23816,806,-7022,-3930,-31775,-4853,-11193
23826,294,-8298,-4910,-31775,-4638,-11146
23836,326,-9010,-5436,-31775,-4091,-10492
23846,136,-9528,-6390,-31822,-3226,-9296
23856,-430,-10720,-7190,24213,-2586,-7173
23866,-740,-11522,-6968,14537,-1430,-3872
23876,960,-10380,-6388,5326,-1481,-83
23886,1594,-9170,-5366,-1146,-1704,2573
23896,2134,-8340,-4772,-5395,-282,3690
23906,2190,-7720,-4124,-6314,1048,3435
23916,1542,-7470,-3550,-4625,2029,2435
23926,2086,-7116,-3876,-2603,2110,1308
23936,1522,-6586,-4004,-548,2485,110
23946,1022,-6370,-4142,342,1812,-549
23956,504,-6178,-4466,675,586,-837
23966,482,-6124,-4492,-120,71,-709
23976,370,-6032,-4764,-1054,-60,-313
23986,406,-6034,-5122,-2306,227,231
23996,268,-6186,-5452,-3965,230,944
24006,658,-6362,-5928,-6054,212,1813
24016,688,-6408,-6184,-8231,74,2797
24026,368,-6122,-6390,-10531,-65,3947
24036,1032,-6482,-6490,-13455,120,5212
24046,764,-6156,-6478,-19927,420,7785
24056,742,-5596,-6288,-23115,314,8505
24066,534,-5300,-6504,-25990,506,8570
24076,510,-4914,-6546,-28144,363,8445
24086,450,-4792,-6530,-29848,526,8154
24096,516,-4102,-6634,-30638,667,7308
24107,420,-3532,-7634,-29905,451,6051
24117,226,-2564,-7538,-27588,833,4733
24127,328,-1622,-7838,-23557,1817,3419
24137,298,-602,-7648,-19521,2152,2691
24147,412,150,-7492,-15632,2946,2505
24157,688,498,-7242,-12244,3585,2453
24167,920,774,-7214,-8594,3554,2418
24177,1048,742,-7018,-5335,2682,2294
24187,924,658,-6972,-3144,1260,2208
24197,824,382,-7212,-1602,-428,2020
24207,574,320,-7252,-301,-1921,1756
24217,274,102,-7474,645,-2808,1524
24227,242,-12,-7486,1146,-2923,1457
24237,252,-8,-7660,1380,-2508,1467
24247,394,-236,-7872,1252,-2235,1554
24257,466,-50,-7860,881,-2026,1650
24267,568,-58,-7932,541,-1560,1576
24278,762,80,-7992,273,-1020,1425
24288,828,228,-7994,101,-556,1253
24298,886,320,-7964,121,-240,1043
24308,1020,242,-7956,343,132,773
24318,828,340,-7900,740,377,531
24328,944,286,-7904,1190,404,375
24338,1066,276,-7810,1361,317,314
24348,824,398,-7724,1461,-157,257
24358,776,246,-7762,1811,-181,130
24368,776,302,-7760,1976,-92,59
24378,812,222,-7720,1893,-239,37
24388,804,282,-7810,1817,-287,13
24398,724,178,-7794,1821,-451,-30
24408,596,172,-7840,1757,-673,-56
24418,690,60,-7856,1717,-610,-95
24428,618,66,-7948,1643,-574,-93
24438,650,12,-7892,1568,-344,-105
24448,650,12,-7892,1568,-344,-105
24458,616,72,-7940,1578,-271,-136
24468,676,-8,-7936,1701,-318,-221
24478,602,-10,-7932,1756,-450,-241
24488,600,-10,-7952,1771,-492,-253
24498,550,-126,-8056,1687,-539,-248
24508,426,-90,-8064,1480,-644,-206
24518,342,-140,-8044,1263,-566,-180
24528,372,-102,-8022,1107,-340,-156
24538,324,-126,-7998,911,-195,-123
24548,402,-100,-7970,748,-139,-66
24558,444,-52,-8028,689,-203,-18
24568,458,-126,-8034,816,-300,-14
24578,434,-144,-8044,940,-411,-13
24588,402,-152,-8020,1048,-638,18
24598,360,-116,-7996,1093,-903,86
24608,232,-72,-8026,1109,-1052,116
24619,300,-120,-8012,1059,-1022,117
24629,300,-142,-7958,985,-869,131
24639,284,-144,-8084,887,-698,169
24649,324,-104,-8048,784,-611,202
24659,328,-112,-7992,675,-595,189
24669,266,-48,-7996,576,-598,155
24679,276,34,-7954,474,-575,137
24689,344,44,-7938,396,-481,161
24699,320,76,-7930,387,-407,210
24709,360,42,-7966,453,-386,228
24719,302,44,-8068,553,-432,219
24729,250,46,-8100,678,-478,194
24739,182,-32,-8224,812,-488,175
24749,208,-74,-8208,916,-405,154
24759,194,-56,-8208,982,-203,151
24769,308,-96,-8276,942,-83,152
24779,382,-102,-8346,907,78,154
24790,500,-18,-8308,760,219,180
24800,384,44,-8262,629,144,182
24810,394,78,-8262,532,-22,164
24820,344,86,-8228,485,-135,168
24830,364,138,-8200,434,-216,192
24840,252,30,-8194,403,-238,211
24850,278,64,-8162,382,-151,197
24860,316,52,-8096,457,20,171
24870,276,80,-8076,426,5,169
24880,276,80,-8076,426,5,169
24890,378,56,-8012,315,0,197
24900,408,82,-7968,247,2,207
24910,398,54,-7966,147,-10,218
24920,402,120,-7940,33,-79,233
24930,414,174,-7916,-56,-159,233
24940,400,218,-7870,-94,-196,221
24950,280,230,-7856,-60,-216,192
24960,282,252,-7748,31,-221,176
24970,254,258,-7714,133,-156,169
24980,272,250,-7700,232,-55,163
24990,356,262,-7694,259,71,192
25000,406,256,-7764,234,188,221
25010,548,330,-7794,205,255,222
25020,560,364,-7838,214,198,197
25030,538,392,-7844,261,17,181
25040,508,430,-7868,323,-226,191
25050,428,452,-7876,380,-425,185
25060,332,472,-7924,442,-491,169
25070,310,576,-7976,559,-438,156
25080,300,554,-8110,707,-273,172
25090,340,512,-8248,903,-40,176
25100,386,484,-8326,1117,266,134
25110,504,478,-8408,1256,544,45
25120,580,396,-8378,1279,712,-33
25131,640,336,-8356,1207,790,-99
25141,602,360,-8326,1064,729,-147
25151,516,340,-8296,909,592,-157
25161,468,356,-8264,743,408,-161
25171,458,336,-8152,625,296,-145
25181,446,312,-8110,533,292,-87
25191,490,320,-8096,510,313,-28
25201,510,288,-7974,537,304,-9
25211,574,368,-7944,622,243,-18
25221,646,350,-7966,738,138,-10
25231,606,396,-7874,845,-4,-2
25241,614,444,-7872,900,-113,24
25251,542,398,-7784,891,-183,53
25261,498,476,-7804,840,-222,72
25271,416,512,-7774,802,-174,93
25281,418,522,-7708,792,-18,104
25291,506,510,-7716,804,195,111
25302,764,500,-7788,963,516,122
25312,752,492,-7798,1102,446,107
25322,828,410,-7882,1205,249,76
25332,856,446,-7868,1242,21,20
25342,860,436,-7882,1219,-98,-31
25352,796,386,-7880,1161,-109,-54
25362,758,364,-7946,1093,-106,-76
25372,716,334,-7920,1066,-175,-99
25382,702,420,-7944,1061,-255,-124
25392,650,432,-7934,1061,-313,-131
25402,612,402,-7918,1048,-337,-117
25412,528,428,-7928,1051,-330,-103
25422,570,506,-7922,1049,-286,-114
25432,562,480,-7966,1084,-183,-107
25442,648,462,-7956,1128,-64,-103
25452,640,506,-7980,1178,-23,-81
25462,616,456,-7976,1237,-54,-71
25472,548,416,-8004,1282,-199,-63
25482,534,346,-7964,1292,-357,-69
25492,492,380,-8040,1266,-424,-53
25502,506,384,-8024,1189,-397,-30
25512,542,400,-7944,1123,-329,29
25522,624,390,-7940,1090,-267,103
25532,616,374,-7972,1097,-304,151
25542,594,414,-8020,1147,-434,150
25552,606,412,-8062,1198,-569,149
25562,610,346,-8026,1236,-631,144
25572,568,344,-8106,1253,-629,147
25582,538,340,-8102,1231,-557,131
25592,568,296,-8132,1164,-438,106
25602,676,306,-8102,1082,-317,101
25612,648,368,-8112,997,-220,135
25622,672,358,-8078,939,-200,156
25632,682,406,-8082,952,-264,150
25643,652,396,-8090,1010,-256,139
25653,670,376,-8088,1057,-296,148
25663,644,324,-8094,1095,-353,140
25673,600,298,-8086,1102,-353,143
25683,572,272,-8086,1089,-295,125
25693,580,298,-8050,999,-284,116
25703,604,266,-8036,950,-196,113
25713,698,274,-8088,848,-75,118
25723,624,326,-8006,821,-136,132
25733,624,326,-8006,821,-136,132
25743,616,364,-7960,889,-204,126
25753,622,324,-7936,1042,-287,124
25763,572,302,-7932,1065,-288,146
25773,502,286,-7940,1042,-295,158
25783,516,282,-7898,976,-263,155
25793,552,344,-7950,925,-194,149
25803,578,310,-7982,891,-109,163
25814,598,288,-7930,875,-19,184
25824,646,316,-7932,883,31,171
25834,676,292,-7952,913,14,144
25844,712,312,-8024,950,-70,131
25854,726,282,-8002,1002,-167,134
25864,698,320,-8052,1049,-267,149
25874,704,270,-8078,1099,-360,163
25884,630,254,-8164,1103,-452,161
25894,542,276,-8098,1061,-488,143
25904,566,352,-8062,984,-423,132
25914,558,306,-8080,897,-257,124
25924,630,312,-8060,830,-41,117
25934,682,294,-8056,807,141,103
25944,732,324,-8050,826,218,95
25954,788,342,-8052,875,151,84
25964,740,308,-8016,932,13,75
25974,716,374,-8100,966,-125,62
25984,646,320,-8028,967,-214,53
25994,612,346,-8016,952,-215,39
26004,602,330,-8022,931,-154,34
26014,628,348,-8026,912,-79,31
26024,598,326,-8068,904,-52,37
26034,580,316,-8016,899,-54,38
26044,586,318,-7970,894,-57,40
26054,628,356,-7992,886,-42,44
26064,636,344,-7952,863,-26,50
26074,554,340,-7978,835,-62,59
26084,528,360,-7946,828,-137,64
26094,544,300,-7970,849,-152,69
26104,488,288,-7974,885,-135,79
26114,508,310,-7960,916,-144,101
26124,542,270,-7956,929,-158,127
26134,554,320,-7938,937,-155,150
26144,602,364,-7870,935,-157,168
26155,632,398,-7870,919,-211,197
26165,612,394,-7910,914,-337,224
26175,656,392,-7906,951,-308,223
26185,728,354,-7906,1004,-234,234
26195,688,340,-7944,1068,-188,219
26205,726,324,-7912,1127,-177,174
26215,646,286,-8006,1143,-204,133
26225,632,310,-7890,1128,-247,110
26235,650,334,-7890,1081,-284,122
26245,548,296,-7870,1041,-277,153
26255,606,340,-7874,1031,-260,174
26265,684,314,-7934,1053,-229,195
26275,676,288,-8000,1095,-222,193
26285,634,260,-7980,1118,-267,211
26295,670,288,-7982,1133,-317,213
26305,664,264,-7978,1140,-307,217
26315,674,226,-8014,1151,-281,241
26326,672,224,-8036,1148,-284,248
26336,688,218,-8052,1116,-312,251
26346,690,228,-8024,1092,-381,256
26356,604,220,-8014,1070,-440,249
26366,688,228,-7970,1044,-462,230
26376,668,270,-7950,1029,-454,226
26386,626,230,-7972,1015,-437,206
26396,664,260,-7986,1014,-388,182
26406,664,248,-8064,1031,-317,167
26416,670,258,-8064,1049,-261,159
26426,672,244,-8042,1042,-238,152
26436,606,236,-8038,1009,-242,148
26446,678,230,-8068,978,-218,148
26456,628,288,-8070,970,-188,152
26466,638,326,-8088,991,-143,150
26476,660,246,-8140,1029,-110,140
26486,618,262,-8122,1073,-120,138
26496,702,250,-8150,1076,-155,142
26506,646,272,-8130,1031,-215,148
26516,634,216,-8080,964,-302,167
26526,594,272,-8094,923,-371,177
26536,606,244,-8104,897,-361,172
26546,612,292,-8066,876,-296,152
