# label=supination
# trial=16
# subject=handback_single
# captured_at=20260412_032318
# sensor_count=1
ts_ms,ax,ay,az,gx,gy,gz
79074,-1496,7630,-144,3871,-1466,-12138
79084,-1812,7550,-304,5988,-1080,-12899
79094,-1090,7190,-714,7913,-360,-13548
79104,-1564,6524,-800,9055,1000,-14194
79114,-1498,6380,-1280,9834,2480,-14677
79124,-1792,6226,-1806,11080,2919,-14948
79134,-2282,5992,-2030,11834,2207,-14735
79144,-3122,5744,-2446,12906,929,-14388
79154,-3900,5530,-2812,14418,-933,-14176
79164,-4952,5374,-2954,15598,-2297,-13818
79174,-5384,5168,-3522,16726,-2630,-13232
79184,-6010,4920,-4280,18094,-1684,-12428
79194,-5642,4044,-4110,19799,214,-11482
79204,-5548,3426,-4124,20882,1939,-10602
79214,-5094,2818,-4324,21774,3818,-9402
79224,-4494,2384,-4634,22128,4443,-7943
79234,-4406,1524,-5074,21863,3471,-6203
79244,-4282,642,-5434,21457,1776,-4793
79254,-4750,480,-6250,19942,-298,-4067
79264,-5460,354,-6842,18263,-1901,-3552
79275,-6198,440,-6960,16387,-2129,-3103
79285,-6972,268,-7390,15251,-1357,-2305
79295,-7078,456,-7488,14296,423,-988
79305,-6938,154,-7464,14041,2598,589
79315,-6306,-18,-7516,13984,4833,2271
79325,-5206,-738,-7530,14123,6862,3785
79335,-3676,-1258,-7840,14151,7826,4531
79345,-3112,-1232,-8254,13462,7476,4058
79355,-2554,-754,-8250,12089,5518,3455
79365,-2504,-572,-8140,11104,2851,3446
79375,-3152,-394,-8404,10369,365,4174
79385,-3640,-428,-8582,10195,-1031,5576
79395,-4098,-702,-8368,10159,-864,7562
79405,-4378,-1126,-8324,10654,-1,9737
79415,-4310,-1680,-7804,11126,1522,11759
79425,-4304,-2208,-7480,12038,3538,13438
79435,-3680,-2702,-6920,12410,5100,14859
79446,-2408,-3062,-7410,13416,7397,16732
79456,-1288,-2806,-7918,13169,7876,17131
79466,-672,-2938,-7650,11908,7400,17096
79476,-694,-2678,-7984,9146,4927,17058
79486,-944,-2702,-8284,5987,1119,17095
79496,-1742,-2634,-8458,2402,-2463,17519
79506,-2184,-2366,-9142,-996,-5261,17356
79516,-2894,-2338,-9248,-4051,-7287,16759
79526,-3660,-2214,-9400,-6665,-7448,16027
79536,-3756,-2028,-9402,-8808,-6304,15145
79546,-3528,-1818,-9312,-10692,-4027,13919
79556,-3242,-1098,-9128,-12192,-751,12506
79566,-2730,-636,-9032,-13006,2446,10899
79576,-2214,-368,-8940,-13104,5095,9262
79586,-1842,56,-8576,-12520,7157,8147
79596,-552,292,-8062,-12145,7257,7516
79606,86,544,-7782,-12376,7844,7106
79616,244,1008,-7736,-12614,8102,6940
79626,558,1336,-7954,-12816,7404,6655
79636,580,1694,-7496,-12704,5261,6085
79646,828,2006,-7644,-12517,3341,5316
79656,212,2472,-7492,-12151,1828,4581
79666,398,2482,-7262,-11808,828,4118
79676,412,2892,-7134,-11520,-561,3953
79686,330,3156,-6762,-11130,-1661,3699
79696,468,3468,-6742,-10662,-1994,3138
79706,474,3536,-6494,-10216,-1595,2500
79716,508,3972,-6428,-9896,-1265,1974
79726,830,4052,-6062,-9523,-1311,1568
79736,446,3834,-5994,-9141,-901,1064
79746,842,4076,-5968,-9470,141,673
79756,640,4348,-5906,-9585,656,403
79766,764,4568,-5806,-9954,796,240
79776,984,4960,-5596,-10054,579,-26
79787,1216,5076,-5468,-10011,470,-309
79797,1230,5220,-5320,-9797,516,-517
79807,1086,5262,-5002,-9670,198,-902
79817,1200,5236,-4962,-9767,-258,-1400
79827,1242,5674,-4908,-10113,-832,-1816
79837,894,5850,-4586,-10533,-1276,-2055
79847,898,6098,-4440,-10686,-1650,-2262
79857,734,6292,-4184,-10622,-1697,-2361
79867,256,6430,-3740,-9719,-1868,-2928
79877,256,6430,-3740,-9719,-1868,-2928
79887,200,6800,-3612,-9136,-2222,-3380
79897,-48,7106,-3290,-7522,-2127,-3686
79907,-128,7208,-3174,-6310,-1917,-3663
79917,-472,7316,-3266,-5025,-1817,-3557
79927,-512,7298,-3190,-3921,-2006,-3438
79937,-654,7262,-3124,-3009,-2168,-3394
79947,-568,7132,-3070,-2281,-2145,-3433
79958,-812,7070,-2978,-1703,-1899,-3591
79968,-764,7070,-2890,-1301,-1597,-3900
79978,-544,7130,-2882,-931,-1220,-4250
79988,-554,7164,-2680,-382,-954,-4526
79998,-664,7178,-2714,388,-851,-4697
80008,-1136,7056,-2806,1357,-1112,-4842
80018,-1470,6968,-2886,2344,-1823,-5127
80028,-1604,6780,-2922,3193,-2348,-5584
80038,-1456,6762,-3028,3907,-2370,-6095
80048,-1598,6596,-3130,4484,-1951,-6481
80058,-1774,6448,-3278,5082,-1530,-6716
80068,-1952,6392,-3432,5570,-1468,-6859
80078,-2420,6296,-3636,6074,-1797,-6940
80088,-2568,6312,-3668,6656,-2337,-7055
80098,-2790,6240,-3760,7342,-2837,-7166
80108,-3160,6150,-3828,8281,-2929,-7188
80118,-3540,6126,-3962,9526,-2552,-7173
80128,-3790,5862,-4124,10925,-1729,-7117
80138,-3720,5412,-4474,12520,-511,-6987
80148,-3556,4788,-4606,14336,891,-6857
80158,-3228,4086,-4970,15677,1996,-6722
80168,-2954,3456,-5258,16671,2286,-6640
80178,-2908,3338,-5716,16993,1533,-6517
80188,-3090,3188,-6020,16689,59,-6170
80198,-3530,2962,-6346,16167,-1678,-5546
80208,-4054,2876,-6558,15465,-3272,-4487
80218,-4616,2576,-6770,15160,-4291,-3119
80228,-5188,2252,-7036,15477,-4258,-1595
80238,-5060,1538,-7286,15451,-3597,-236
80248,-5174,1000,-7326,15458,-2519,638
80258,-4556,540,-7438,14811,-1715,904
80268,-4252,376,-7630,13793,-1068,736
80278,-4008,392,-7766,12498,-679,777
80288,-4272,478,-7912,10766,-1235,1373
80299,-4448,588,-8116,9122,-1911,2577
80309,-4708,674,-8176,7666,-2394,4322
80319,-5060,562,-8178,5929,-1599,8739
80329,-4894,224,-8012,5696,-501,10833
80339,-4506,-64,-7900,5703,788,12294
80349,-3824,-216,-7786,5708,1898,12948
80359,-3138,-198,-7792,5733,2838,12756
80369,-2484,-102,-7646,5537,3481,12057
80379,-2242,156,-7938,5001,3784,11532
80389,-1680,238,-7716,4687,3364,11327
80399,-1686,456,-7828,4510,1847,11386
80409,-1490,486,-7742,4144,983,11406
80419,-1272,450,-7706,3706,279,11130
80429,-1004,548,-7812,3077,-1193,10358
80439,-1180,428,-7912,2628,-2840,9286
80449,-1644,538,-7870,2290,-4069,8069
80459,-1798,424,-8058,1713,-5165,6803
80470,-2308,618,-8100,1409,-6486,5634
80480,-2022,536,-8062,1154,-5523,4869
80490,-1878,620,-8242,628,-3934,4242
80500,-1886,668,-8254,105,-2699,3707
80510,-1474,734,-8248,-336,-1434,3371
80520,-1396,906,-8058,-775,-432,3149
80530,-1072,852,-8188,-732,435,2947
80540,-838,952,-8188,-656,755,2794
80550,-636,978,-7950,-126,168,2573
80560,-810,842,-7818,200,-1150,2349
80570,-890,928,-7736,323,-1645,2155
80580,-1060,814,-7664,465,-1870,1925
80590,-1550,802,-7452,589,-2141,1775
80600,-1450,920,-7508,546,-2346,1744
80610,-1472,972,-7464,367,-2327,1765
80620,-1424,966,-7582,477,-2397,1696
80630,-1540,998,-7594,424,-2534,1618
80640,-1518,974,-7608,366,-2418,1615
80650,-1404,1092,-7620,285,-2156,1670
80660,-1362,1048,-7606,274,-1872,1721
80670,-1334,1114,-7646,246,-1728,1761
80680,-1272,1144,-7756,180,-1819,1785
80690,-1280,1126,-7786,145,-2173,1835
80700,-1310,1120,-7768,216,-2689,1866
80710,-1400,1172,-7772,303,-3184,1861
80720,-1466,1118,-7796,315,-3465,1862
80730,-1606,1130,-7792,346,-3598,1826
80740,-1646,1088,-7768,346,-3692,1725
80750,-1688,1094,-7720,327,-3704,1643
80760,-1714,1050,-7786,372,-3443,1629
80770,-1650,1046,-7722,400,-3019,1718
80780,-1594,1010,-7668,297,-2636,1886
80790,-1380,1046,-7796,42,-2458,2140
80800,-1372,1038,-7810,-2,-2689,2137
80811,-1430,1084,-7842,40,-3014,2077
80821,-1456,1098,-7838,127,-3301,2019
80831,-1378,1126,-7864,271,-3397,1950
80841,-1392,1138,-7884,435,-3339,1822
80851,-1386,1098,-7886,587,-3282,1606
80861,-1378,1108,-7902,738,-3173,1436
80871,-1350,1092,-7840,855,-2950,1331
80881,-1398,994,-7820,873,-2775,1338
80891,-1304,1024,-7774,784,-2668,1533
80901,-1162,1072,-7718,580,-2554,1791
80911,-1064,1132,-7810,387,-2514,1957
80921,-1136,1116,-7784,252,-2766,1965
80931,-1222,1160,-7836,186,-3216,1856
80941,-1340,1200,-7748,218,-3637,1761
80951,-1406,1236,-7730,347,-3915,1679
80961,-1486,1280,-7662,552,-3959,1592
80971,-1440,1274,-7636,828,-3675,1470
80982,-1460,1198,-7554,1082,-3261,1377
80992,-1452,1126,-7606,1229,-2869,1378
81002,-1420,1068,-7614,1260,-2624,1474
81012,-1362,1062,-7686,1174,-2609,1587
81022,-1378,1074,-7682,1014,-2843,1663
81032,-1404,1050,-7732,854,-3143,1687
81042,-1468,1060,-7750,705,-3346,1737
81052,-1452,1104,-7796,604,-3448,1807
81062,-1538,1088,-7854,558,-3443,1804
81072,-1606,1072,-7922,629,-3396,1710
81082,-1680,1038,-7916,743,-3302,1548
81092,-1658,1038,-7862,829,-3147,1412
81102,-1576,1020,-7902,866,-2962,1343
81112,-1598,1018,-7836,898,-2864,1301
81122,-1492,976,-7838,835,-2762,1361
81132,-1406,982,-7862,669,-2657,1578
81142,-1356,1020,-7848,477,-2698,1803
81152,-1420,982,-7912,341,-2973,1938
81162,-1430,996,-7924,303,-3305,2000
81172,-1600,990,-7886,313,-3582,1979
81182,-1622,1002,-7956,373,-3792,1953
81192,-1576,1058,-7858,485,-3637,1795
81202,-1576,1058,-7858,485,-3637,1795
81212,-1508,1126,-7844,419,-2994,1614
81222,-1436,1132,-7810,400,-2729,1593
81232,-1416,1130,-7762,428,-2686,1624
81242,-1378,1130,-7698,475,-2791,1690
81252,-1410,1098,-7700,527,-3000,1764
81262,-1374,1090,-7700,566,-3187,1830
81272,-1490,1052,-7738,557,-3319,1837
81282,-1496,1090,-7768,541,-3370,1818
81292,-1526,1106,-7796,561,-3321,1775
81302,-1544,1114,-7802,618,-3182,1698
81312,-1546,1098,-7774,675,-3018,1601
81323,-1446,1140,-7742,741,-2882,1506
81333,-1424,1120,-7732,806,-2817,1439
81343,-1462,1126,-7744,842,-2842,1420
81353,-1458,1102,-7768,849,-2923,1465
81363,-1452,1042,-7754,825,-2992,1564
81373,-1470,1064,-7758,783,-3073,1691
81383,-1476,1030,-7706,711,-3116,1783
81393,-1538,1058,-7744,617,-3131,1857
81403,-1516,1064,-7796,514,-3131,1900
81413,-1486,1100,-7850,447,-3102,1926
81423,-1524,1110,-7784,426,-3080,1893
81433,-1514,1144,-7794,441,-3082,1823
81443,-1486,1104,-7740,485,-3086,1754
81453,-1476,1128,-7734,547,-3087,1702
81463,-1526,1132,-7724,624,-3100,1675
81473,-1506,1068,-7672,691,-3110,1730
81483,-1540,994,-7734,697,-3122,1864
81494,-1532,998,-7820,606,-3124,2062
81504,-1534,1018,-7816,404,-3125,2288
81514,-1470,1052,-7944,174,-3119,2478
81524,-1490,1118,-7888,10,-3117,2585
81534,-1514,1164,-7978,-83,-3150,2572
81544,-1456,1210,-7906,-111,-3243,2418
81554,-1468,1216,-7908,-47,-3352,2215
81564,-1476,1234,-7918,87,-3416,2026
81574,-1524,1212,-7874,261,-3393,1843
81584,-1482,1206,-7804,465,-3251,1681
81594,-1494,1168,-7798,687,-2991,1568
81604,-1488,1148,-7762,838,-2744,1503
81614,-1296,1152,-7686,943,-2376,1562
81624,-1296,1152,-7686,943,-2376,1562
81634,-1218,1174,-7670,787,-2571,1663
81644,-1280,1246,-7712,753,-2823,1635
81654,-1330,1276,-7656,801,-3082,1598
81664,-1346,1234,-7710,916,-3268,1590
81674,-1434,1224,-7668,1028,-3334,1607
81684,-1418,1168,-7704,1127,-3269,1592
81694,-1396,1148,-7642,1154,-3098,1550
81704,-1358,1100,-7734,1147,-2923,1515
81714,-1390,1070,-7756,1123,-2828,1516
81724,-1358,1012,-7792,1084,-2802,1530
81734,-1372,1052,-7836,1023,-2819,1553
81744,-1352,1088,-7832,928,-2903,1588
81754,-1364,1060,-7816,825,-2990,1627
81764,-1346,1084,-7860,734,-3025,1646
81774,-1378,1154,-7890,694,-3043,1648
81784,-1404,1132,-7922,730,-3058,1622
81794,-1430,1016,-7872,796,-3094,1583
81804,-1400,1020,-7852,848,-3123,1567
81814,-1450,958,-7864,860,-3115,1570
81824,-1484,872,-7820,810,-3084,1627
81835,-1432,944,-7848,621,-3037,1792
81845,-1416,940,-7902,361,-2955,1982
81855,-1392,1034,-7970,89,-2894,2143
81865,-1392,1064,-7968,-130,-2909,2275
81875,-1342,1144,-8022,-238,-3008,2360
81885,-1358,1134,-8018,-206,-3149,2387
81895,-1360,1128,-8044,-92,-3313,2387
81905,-1364,1140,-7964,10,-3428,2345
81915,-1378,1116,-7936,88,-3466,2247
81925,-1412,1118,-7836,130,-3403,2107
81935,-1388,1170,-7750,164,-3280,1951
81945,-1362,1180,-7740,247,-3086,1781
81955,-1374,1204,-7696,392,-2929,1629
81965,-1368,1186,-7646,551,-2827,1558
81975,-1316,1184,-7670,674,-2780,1580
81985,-1268,1122,-7660,694,-2811,1651
81995,-1276,1150,-7640,639,-2889,1724
82006,-1320,1216,-7684,576,-3021,1777
82016,-1384,1216,-7690,504,-3134,1796
82026,-1392,1236,-7650,480,-3171,1770
82036,-1532,1258,-7746,617,-3146,1600
82046,-1464,1270,-7672,703,-3041,1532
82056,-1396,1258,-7680,758,-2889,1538
82066,-1360,1200,-7688,792,-2750,1564
82076,-1348,1190,-7780,819,-2693,1590
82086,-1362,1182,-7778,806,-2770,1642
82096,-1418,1174,-7796,754,-2950,1722
82106,-1410,1184,-7738,708,-3142,1775
82116,-1450,1184,-7726,686,-3288,1796
82126,-1486,1202,-7756,687,-3307,1841
82136,-1438,1204,-7838,711,-3187,1885
82146,-1490,1150,-7820,775,-2983,1901
82156,-1472,1146,-7844,860,-2803,1869
82166,-1452,1110,-7924,925,-2714,1835
82176,-1472,1036,-7932,957,-2690,1840
82186,-1520,996,-7966,923,-2700,1943
82196,-1572,894,-8030,750,-2675,2258
82206,-1642,888,-8158,425,-2572,2901
82216,-1788,848,-8262,-53,-2377,3865
82226,-1822,840,-8362,-625,-2167,4993
82236,-1966,840,-8410,-1109,-1990,6142
82246,-2314,760,-8574,-1430,-1820,7171
82256,-2934,740,-8614,-1644,-1636,8002
82266,-3470,728,-8564,-1857,-1179,8652
82276,-4394,724,-8384,-2148,-219,9066
82286,-4722,820,-7892,-2592,1716,9441
82296,-4252,890,-7522,-3568,4887,10047
82306,-2378,936,-7254,-5000,8902,10819
82316,-620,1164,-7392,-6527,13210,11605
82326,1584,1956,-7954,-8174,16248,12002
82336,2184,2074,-8590,-9437,16298,11840
82347,2868,2608,-8468,-10446,13490,11418
82357,2324,3194,-8556,-10641,8761,10520
82367,1422,3232,-7894,-10153,3124,9322
82377,1480,3760,-8234,-9525,-1087,8425
82387,1176,3902,-7810,-8787,-4624,7711
82397,1412,3764,-7392,-8047,-4702,7491
82407,2376,3582,-7348,-7377,-2895,7585
82417,3298,3824,-6892,-7302,-539,7758
82427,3984,3554,-7020,-7537,1856,7729
82437,4362,3724,-7296,-7824,3121,7386
82447,4906,3814,-6966,-8144,2090,6916
82457,5164,3912,-6712,-8072,499,6334
82467,4894,4188,-6908,-7528,-304,5632
82477,5148,3080,-7204,-7396,403,4819
82487,5182,3258,-6616,-8345,752,4250
82497,5438,3120,-6522,-9798,1343,3610
82507,6124,3948,-6016,-12925,1543,1545
82518,5638,4194,-5316,-13610,598,137
82528,4934,3954,-4774,-13886,-945,-1325
82538,5192,4140,-4068,-14423,-1606,-2548
82548,4744,4232,-3368,-14830,-2099,-3785
82558,4356,4206,-3118,-15240,-2127,-5041
82568,4520,4178,-2746,-15524,-2103,-6260
82578,3560,4620,-1944,-15502,-2643,-7270
82588,3780,4968,-1816,-15489,-3327,-8146
82598,3400,5542,-1374,-15304,-4195,-8821
82608,2550,6082,-1026,-14529,-4527,-9350
82618,2244,6670,-642,-13188,-4695,-9859
82628,1372,7106,-410,-11517,-4508,-10250
82638,796,7516,-164,-9515,-3640,-10675
82648,862,7796,12,-7292,-2252,-11206
82658,1332,7554,-120,-5141,-23,-11749
82668,1314,7380,-134,-3213,2419,-12087
82678,1320,7270,-458,-1587,3817,-12312
82688,352,7472,-600,-112,4038,-12548
82698,54,7910,-610,1110,3091,-12890
82708,-270,8200,-622,2655,2104,-13322
82718,-1296,8236,-714,4638,1663,-13677
82728,-1550,8338,-1056,6953,1849,-13919
82738,-1904,8224,-1226,9172,2408,-14093
82748,-2066,8050,-1578,11493,3864,-14023
82758,-2410,7582,-2102,14026,4977,-13851
82768,-2032,7226,-2578,16270,5602,-13512
82778,-1788,6348,-2630,17844,5762,-13101
82788,-1828,5578,-3030,19291,5048,-12810
82798,-1920,4842,-3748,20338,3291,-12684
82808,-2392,4546,-4268,20752,913,-12562
82818,-3128,4344,-4394,20967,-845,-12180
82828,-4150,3888,-4876,20877,-2339,-11270
82838,-4954,3738,-5292,21020,-2958,-9841
82848,-5052,3076,-5560,21477,-2505,-8321
82859,-5280,2792,-5612,21884,-1259,-6913
82869,-5174,2156,-5776,22076,447,-5474
82879,-4910,1800,-5828,22324,2291,-3909
82889,-4172,1180,-6008,21988,3687,-2407
82899,-3614,802,-6230,21631,4404,-1155
82909,-3884,878,-7062,20764,4017,-36
82919,-3828,666,-6954,19754,3398,1272
82929,-4614,60,-7262,18327,3049,5567
82939,-4664,-426,-7338,17805,3877,8427
82949,-4664,-426,-7338,17805,3877,8427
82959,-4448,-1616,-7542,17444,7207,14157
82969,-4182,-2410,-7296,17166,9061,16568
82979,-3654,-3148,-7622,17261,10408,18498
82989,-632,-2892,-8110,17171,11425,19354
82999,1574,-2260,-8336,17060,12052,17802
83009,1560,-2060,-8268,15440,9986,15635
83019,1172,-2182,-8450,12767,4681,13705
83030,44,-2518,-8864,10414,-1603,12574
83040,-950,-2520,-9428,7581,-6711,12090
83050,-1846,-2776,-9538,4675,-9632,12093
83060,-2642,-2886,-9414,1814,-9732,12355
83070,-2868,-3254,-9760,-613,-8091,12508
83080,-3146,-3314,-9772,-2705,-5382,12605
83090,-3060,-3096,-9628,-4777,-2215,12605
83100,-1842,-2944,-10196,-6870,110,12345
83110,-2154,-2768,-9776,-9293,1676,11963
83120,-1648,-2182,-9446,-11157,2872,11372
83130,-786,-1936,-9216,-12848,3252,11018
83140,-660,-1460,-8828,-14864,4072,10802
83150,-372,-938,-8674,-16706,6317,10787
83160,200,-782,-8652,-17816,7868,10761
83170,736,152,-8556,-18366,7668,10566
83180,1022,968,-8634,-17745,6887,9937
83190,882,1428,-8500,-16550,5880,9061
83200,938,1704,-8164,-14978,4688,8266
83210,928,1804,-7864,-13656,3889,7716
83220,1276,1964,-7460,-12808,3452,7355
83230,1656,2218,-7306,-12520,3218,6992
83240,2150,2474,-7064,-12549,3354,6634
83250,2146,2598,-6976,-12869,3306,6395
83260,2564,2922,-6428,-13037,2596,6091
83270,2594,3628,-6466,-13200,915,5449
83280,2650,3792,-6288,-13087,396,4515
83290,2406,4238,-6114,-12679,56,3412
83300,2524,4154,-6114,-12114,-477,2445
83310,2346,4444,-5632,-11476,-957,1784
83320,2318,4316,-5404,-11223,-1011,1154
83330,2784,4354,-5156,-11848,-916,773
83340,3090,4668,-4866,-12414,80,549
83350,2952,5048,-4734,-13153,859,225
83360,3122,5568,-4458,-13728,1249,-373
83371,3210,5822,-4350,-13840,1358,-1211
83381,3198,6376,-3624,-12698,-197,-2626
83391,3008,6492,-3320,-11423,-1293,-3274
83401,2678,6504,-3254,-10406,-2190,-3859
83411,2576,6616,-3004,-9567,-2421,-4329
83421,2530,6486,-3000,-8939,-2307,-4679
83431,2378,6464,-2876,-8682,-1809,-4783
83441,1790,6362,-2824,-8689,-1580,-4848
83451,1624,6596,-2718,-8895,-1758,-5077
83461,1196,7140,-2472,-9105,-1831,-5463
83471,1376,7492,-2164,-9134,-1933,-5980
83481,1090,7746,-1970,-8557,-1668,-6416
83491,876,8120,-1764,-7487,-1181,-6702
83501,464,8198,-1748,-6049,-888,-6904
83511,230,8262,-1606,-4552,-1146,-7043
83521,150,8214,-1632,-3188,-1627,-7308
83531,4,8124,-1736,-2105,-2008,-7660
83542,-846,8102,-1612,-1270,-2312,-8050
83552,-404,8262,-1338,-680,-2403,-8674
83562,-636,8168,-1258,81,-1776,-9183
83572,-1142,8146,-1150,1496,-943,-9432
83582,-1274,8120,-1250,3038,-275,-9619
83592,-1246,7956,-1316,4597,254,-9789
83602,-1270,7724,-1342,6163,326,-9873
83612,-1142,7440,-1498,7625,-40,-9983
83622,-1386,6884,-1850,8986,-621,-9876
83632,-1986,6284,-2164,10157,-1570,-9676
83642,-2396,6174,-2586,10887,-2703,-9550
83652,-2794,6120,-2736,11174,-3251,-9409
83662,-3292,6328,-2816,11374,-2917,-8863
83672,-3484,6120,-3074,11667,-2265,-8075
83682,-3802,5968,-3392,12271,-1651,-7212
83692,-3894,5586,-3664,12883,-1114,-6468
83702,-3880,5322,-3880,13282,-815,-5920
83712,-3530,5052,-4148,13891,-279,-5663
83722,-3622,4838,-4368,14131,-56,-5478
83732,-3510,4614,-4536,14222,-146,-5190
83742,-3656,4450,-4746,14388,-485,-4667
83752,-4006,4320,-5120,14415,-1322,-3736
83762,-4452,4268,-5448,14221,-2247,-2478
83772,-4684,3790,-5664,14058,-2898,-1093
83782,-4784,3598,-5916,14039,-2791,154
83792,-4820,3408,-6156,14134,-2018,1196
83802,-4504,3024,-6192,14396,-925,2098
83812,-4224,2518,-6592,14573,-79,2664
83822,-3490,2262,-6578,14228,123,2353
83832,-3622,2284,-6706,14038,-99,2460
83842,-3622,2284,-6706,14038,-99,2460
83852,-4306,2248,-7064,13764,-606,4962
83862,-4408,1892,-7018,14039,-69,7177
83872,-4540,1342,-6974,14257,848,9596
83883,-4448,764,-6900,14907,2153,11951
83893,-4124,154,-6632,15881,3885,13917
83903,-3468,-144,-6618,16833,5630,15338
83913,-1914,-686,-6970,18069,7328,16013
83923,-744,-692,-7142,19318,8240,15589
83933,12,-680,-7256,19850,7393,13874
83943,510,-964,-6982,19346,5080,11703
83953,178,-1276,-7626,18820,1313,9470
83963,-574,-1268,-8348,17834,-3145,8063
83973,-1408,-1484,-8820,16399,-6595,7563
83983,-2050,-1968,-8866,14342,-8006,7411
83993,-2802,-2390,-8944,11819,-7569,7391
84003,-3226,-2778,-8962,8959,-5920,7487
84013,-3094,-2832,-9304,6022,-3673,7472
84023,-2822,-2942,-9330,2850,-1549,7203
84033,-2906,-2692,-9454,-243,-143,6738
84043,-2250,-2604,-9422,-2984,373,6078
84054,-2418,-2410,-9440,-5107,644,5662
84064,-2208,-1844,-9132,-7143,2119,5679
84074,-1660,-1660,-9122,-9064,4727,5855
84084,-658,-1488,-8918,-10642,6637,6209
84094,-1044,-1054,-8852,-11978,7098,6491
84104,-802,-882,-8714,-12819,7026,6728
84114,-334,-580,-8570,-13382,5901,6866
84124,-16,-310,-8402,-13657,5160,7119
84134,90,84,-8244,-13538,4166,7418
84144,448,494,-8118,-13133,3412,7550
84154,554,934,-7990,-12465,2505,7448
84164,350,1164,-7882,-11540,1585,7348
84174,274,1338,-7712,-10811,591,7383
84184,246,1528,-7538,-10368,-320,7491
84194,430,1690,-7408,-10295,-1071,7480
84204,362,1770,-7276,-10768,-703,7514
84214,498,2004,-7300,-11730,646,7619
84224,1314,2346,-7186,-12866,1724,7625
84234,1682,2876,-7026,-14008,1820,7355
84244,1972,3144,-7058,-14844,1632,6667
84254,2380,3742,-6486,-16218,1028,5096
84264,2392,4092,-6380,-16651,400,4402
84274,2410,4278,-6196,-16807,-101,4085
84284,2302,4550,-5922,-16973,-478,4001
84294,2274,4608,-5432,-17011,-758,3819
84304,2204,5190,-4980,-16793,-1002,3328
84314,2488,5574,-4764,-16530,-1052,2484
