# label=supination
# trial=7
# subject=handback_single
# captured_at=20260412_032230
# sensor_count=1
ts_ms,ax,ay,az,gx,gy,gz
31809,572,-600,-7826,-25954,12780,13363
31819,444,-22,-7788,-25512,11218,12985
31830,472,204,-7324,-24732,9501,12617
31840,814,1012,-7330,-23770,8185,12051
31850,1498,1444,-6956,-22736,7158,11274
31860,1830,2190,-6734,-21904,6816,10370
31870,1928,2734,-6524,-21257,6560,9119
31880,3036,3308,-6258,-20850,6626,7779
31890,3306,3880,-5954,-20636,6511,6654
31900,3888,4212,-6036,-20407,6143,5794
31910,3494,4548,-5846,-19815,5427,5106
31920,3430,4754,-5252,-19025,4251,4234
31930,3578,5530,-5052,-17833,3473,3379
31940,3616,5238,-4500,-17197,2300,2624
31950,3738,5442,-3840,-16675,2137,1988
31960,4198,5730,-3956,-15893,2760,1137
31970,3676,5968,-3594,-15765,2337,374
31980,2938,6214,-3554,-15388,2281,-547
31990,3934,5862,-2966,-14958,1940,-2082
32267,-5952,5896,-3228,18846,2159,-13047
32277,-5492,4652,-3542,22381,3977,-12338
32287,-4328,2948,-3654,25529,6924,-12205
32297,-3314,1812,-4100,27378,8704,-12466
32307,-2900,824,-3950,28621,8812,-12571
32317,-3094,826,-4610,28998,7234,-12132
32327,-3770,856,-4848,28113,3511,-10837
32337,-5122,204,-5292,27195,-173,-8985
32347,-6100,-406,-5664,26014,-2151,-7038
32357,-6586,-1376,-6614,25174,-1905,-5248
32367,-7146,-1572,-6550,22874,-1212,-3330
32377,-6824,-2494,-6996,18134,989,-325
32387,-6824,-2494,-6996,18134,989,-325
32397,-5924,-2536,-7254,14214,3677,1416
32407,-5448,-2338,-7388,12990,4630,1872
32417,-4732,-2322,-7478,11939,5221,2322
32427,-4316,-2284,-7424,10966,5223,2859
32437,-4232,-2322,-7466,10345,4822,3564
32447,-3918,-2396,-7548,10009,4390,4515
32457,-3964,-2484,-7610,9763,4151,5635
32467,-2918,-2524,-7294,9768,4047,6591
32477,-2762,-2854,-7510,10203,3860,7077
32487,-2384,-2870,-7576,10236,3805,7442
32497,-2802,-2814,-7514,10265,3315,7952
32507,-2898,-2856,-7564,10450,3129,8846
32517,-2902,-3040,-7284,10364,3078,10177
32527,-2858,-3300,-7034,9909,3377,11803
32537,-2842,-3498,-6822,9597,3966,13352
32547,-2938,-3524,-6918,8827,4002,14593
32557,-1934,-3572,-7310,7921,3702,15167
32567,-836,-3304,-7582,6548,3498,14941
32577,-150,-3050,-7784,4925,2386,13768
32587,-1192,-2940,-7946,3179,-2,12491
32598,-1676,-3016,-7874,1387,-2526,11757
32608,-2320,-3008,-8008,-173,-5228,10977
32618,-2570,-2972,-7996,-1430,-6460,10184
32628,-2936,-2898,-7726,-2561,-6339,9396
32638,-3128,-2904,-7648,-3405,-5443,8563
32648,-2942,-2886,-7580,-3722,-3554,7585
32658,-2718,-2834,-7506,-3703,-1644,6481
32668,-2492,-2598,-7376,-3375,-138,5354
32678,-2172,-2378,-7346,-2921,714,4250
32688,-1864,-2230,-7238,-2304,1023,3228
32698,-1822,-2088,-7082,-1623,788,2388
32708,-1394,-1854,-7080,-968,605,1713
32718,-1224,-1796,-7138,-319,111,1141
32728,-1414,-1648,-7168,490,-312,800
32738,-1358,-1652,-7148,1269,-641,682
32748,-1322,-1646,-7072,1775,-1193,730
32758,-1486,-1674,-7146,2345,-1909,784
32768,-1664,-1722,-7080,2631,-2721,827
32778,-1948,-1862,-7122,2614,-3449,861
32788,-2062,-1946,-7188,2525,-3864,845
32798,-2352,-1934,-7236,2281,-3953,840
32808,-2510,-1864,-7372,1885,-3682,858
32818,-2472,-1908,-7338,1343,-3163,863
32828,-2240,-1874,-7520,889,-2542,884
32838,-2258,-1930,-7572,481,-1771,776
32848,-2186,-2004,-7474,483,-1835,703
32858,-2186,-2004,-7474,483,-1835,703
32868,-2380,-2200,-7458,520,-2491,560
32878,-2590,-2264,-7346,420,-2610,596
32888,-2526,-2220,-7366,147,-2385,713
32898,-2564,-2224,-7394,-183,-1896,916
32908,-2516,-2212,-7384,-513,-1458,1119
32918,-2330,-2122,-7490,-695,-1248,1338
32928,-2058,-2018,-7532,-765,-1322,1520
32939,-2072,-1894,-7430,-667,-1576,1629
32949,-2118,-1978,-7488,-461,-2274,1614
32959,-2136,-2056,-7456,-233,-2857,1563
32969,-2060,-2124,-7254,48,-3352,1545
32979,-2208,-2086,-7258,501,-3556,1537
32989,-2266,-2136,-7184,801,-3469,1614
32999,-2272,-2142,-7214,926,-3384,1702
33009,-2274,-2034,-7314,955,-3250,1763
33019,-2246,-1986,-7382,815,-3134,1821
33029,-2234,-1970,-7436,701,-2970,1839
33039,-2150,-1988,-7490,583,-2858,1838
33049,-2048,-2096,-7580,490,-2733,1785
33059,-2104,-2056,-7582,463,-2714,1696
33069,-2100,-2170,-7558,478,-2657,1624
33079,-2138,-2140,-7576,540,-2528,1579
33089,-2134,-2156,-7544,432,-2289,1648
33099,-2054,-2096,-7594,184,-2074,1860
33110,-1968,-2008,-7670,-252,-1840,2124
33120,-1902,-1914,-7756,-798,-1679,2346
33130,-1870,-1884,-7866,-1347,-1758,2471
33140,-1866,-1894,-7922,-1724,-1843,2480
33150,-1758,-1858,-7810,-1833,-1932,2459
33160,-1748,-1718,-7772,-1935,-2361,2379
33170,-1874,-1686,-7576,-1875,-2547,2290
33180,-1836,-1516,-7390,-1649,-2827,2303
33190,-1752,-1452,-7450,-1343,-3007,2212
33200,-1748,-1468,-7412,-970,-3135,2019
33210,-1748,-1468,-7374,-786,-3284,1756
33220,-1910,-1360,-7374,-402,-3424,1463
33230,-1792,-1340,-7254,139,-3465,1260
33240,-1710,-1236,-6876,725,-3466,1069
33250,-1662,-1250,-6836,1689,-3462,998
33260,-1798,-1288,-6796,2735,-3476,1045
33270,-1982,-1280,-7098,4186,-3740,1328
33280,-1982,-1280,-7098,4186,-3740,1328
33290,-1868,-1204,-7180,3750,-3851,1635
33300,-1672,-1270,-6988,3289,-3832,1643
33310,-1830,-1556,-6936,3082,-3850,1530
33320,-1978,-1696,-6820,3232,-4172,1339
33330,-2166,-2066,-7024,3724,-4675,1168
33340,-2306,-2038,-6898,4163,-5219,958
33350,-2278,-1912,-8038,4399,-5375,707
33360,-4568,-6912,-11166,3094,-5055,408
33370,-2518,-676,-8150,-1576,-4551,1287
33380,-2704,-3036,-8202,-3540,-3328,1031
33390,-1414,-2458,-7734,-3396,-1875,926
33400,-1870,-2482,-7704,-2055,-766,1038
33410,-1974,-2258,-7690,-450,-1122,1572
33420,-1808,-2316,-7706,718,-2187,1693
33430,-1680,-2642,-7720,1484,-3429,1412
33440,-1462,-2538,-7474,1960,-4186,1078
33451,-1464,-2404,-7288,2300,-4218,883
33461,-1646,-2342,-7252,2606,-3868,881
33471,-1830,-2168,-7028,2543,-3865,1048
33481,-1884,-1908,-7080,2267,-4143,1222
33491,-2006,-1864,-7112,1864,-4419,1236
33501,-2024,-1972,-7066,1187,-4608,1115
33511,-2114,-1922,-7052,556,-4507,1010
33521,-2274,-1992,-7086,79,-4229,1059
33531,-2414,-1964,-7094,-265,-3989,1314
33541,-2526,-2012,-7208,-577,-3814,1650
33551,-2662,-2062,-7146,-833,-3712,1935
33561,-2658,-2090,-7236,-1020,-3597,2147
33571,-2634,-1968,-7178,-1289,-3403,2286
33581,-2708,-2102,-7380,-1545,-3131,2284
33591,-2820,-2188,-7436,-1638,-2896,2198
33601,-3044,-2194,-7542,-1559,-2791,2019
33611,-3106,-2376,-7554,-1199,-2714,1836
33622,-3054,-2466,-7560,-567,-2604,1730
33632,-2860,-2256,-7426,69,-2423,1701
33642,-2736,-2172,-7386,508,-2121,1691
33652,-2682,-2058,-7268,753,-1762,1594
33662,-2536,-1744,-7208,585,-1350,1520
33672,-2536,-1744,-7208,585,-1350,1520
33682,-2246,-1780,-7144,-103,-1117,1548
33692,-2092,-1702,-7234,-435,-1061,1646
33702,-2086,-1772,-7306,-703,-967,1748
33712,-1964,-1848,-7486,-862,-949,1874
33722,-1888,-1924,-7538,-885,-906,1927
33732,-1488,-1912,-7726,-770,-811,1835
33742,-1648,-1820,-7674,-565,-570,1627
33752,-1576,-1762,-7714,-544,-584,1390
33762,-1382,-1696,-7684,-366,-768,1255
33772,-1548,-1648,-7584,-317,-1227,1266
33782,-1484,-1604,-7610,-202,-1475,1426
33792,-1426,-1690,-7790,-89,-1711,1567
33802,-1236,-1516,-7694,-57,-1743,1799
33812,-1152,-1454,-7826,-196,-1460,1769
33822,-1064,-1708,-7814,-179,-1249,1719
33832,-954,-1586,-7770,-42,-1212,1760
33842,-936,-1642,-7736,49,-1393,1776
33852,-832,-1534,-7718,89,-1841,1786
33862,-934,-1526,-7744,112,-2369,1810
33872,-994,-1498,-7704,23,-2568,1891
33882,-1056,-1484,-7776,2,-2610,1969
33892,-1038,-1458,-7740,55,-2731,2037
33902,-926,-1446,-7806,100,-2768,2056
33912,-898,-1402,-7788,48,-2780,1994
33922,-966,-1494,-7766,14,-2924,1911
33932,-1066,-1494,-7800,32,-3151,1900
33942,-1082,-1496,-7784,36,-3380,1921
33952,-1128,-1290,-7744,-8,-3653,1928
33963,-1202,-1274,-7674,-93,-3915,1934
33973,-1302,-1286,-7780,-116,-4070,2032
33983,-1222,-1146,-7812,-157,-4014,2164
33993,-1224,-1286,-7938,-242,-3817,2151
34003,-1318,-1420,-7876,-237,-3734,2077
34013,-1414,-1480,-7864,-62,-3790,1978
34023,-1518,-1452,-7828,126,-3992,1885
34033,-1666,-1524,-7782,259,-4215,1835
34043,-1784,-1582,-7706,480,-4373,1844
34053,-1846,-1528,-7716,652,-4360,1868
34063,-1854,-1502,-7606,740,-4211,1885
34073,-1900,-1430,-7580,815,-4020,1903
34083,-1958,-1392,-7502,841,-3841,1890
34093,-1982,-1356,-7422,796,-3706,1871
34103,-1982,-1220,-7496,672,-3589,1851
34113,-2060,-1280,-7508,445,-3441,1895
34123,-2020,-1278,-7494,282,-3249,2040
34134,-1936,-1268,-7700,83,-2771,2145
34144,-1846,-1290,-7758,119,-2660,2057
34154,-1844,-1192,-7800,271,-2693,2010
34164,-1730,-1156,-7892,364,-2778,1943
34174,-1762,-1336,-7780,330,-2864,1809
34184,-1730,-1264,-7780,347,-2924,1729
34194,-1736,-1342,-7770,340,-2889,1692
34204,-1788,-1272,-7788,373,-2794,1663
34214,-1868,-1440,-7746,386,-2656,1640
34224,-1758,-1484,-7714,467,-2463,1642
34234,-1642,-1482,-7752,608,-2283,1688
34244,-1398,-1494,-7914,792,-2105,1783
34254,-1614,-1614,-7874,1003,-1901,1793
34264,-1684,-1692,-7982,1309,-1791,1615
34274,-1700,-1766,-8006,1846,-1757,1603
34284,-1234,-1722,-7980,2557,-1576,1906
34294,-918,-1640,-7838,3347,-1288,2301
34304,-838,-1588,-7602,3957,-1273,2591
34314,-1050,-1414,-7416,4300,-1491,2795
34324,-1514,-1552,-7282,4381,-1960,3015
34334,-2064,-1502,-7192,4164,-2377,3490
34344,-2022,-1444,-7206,3590,-2318,4203
34354,-1468,-1354,-7460,2546,-1793,4745
34364,-1254,-1386,-7670,1107,-1058,4983
34374,-1176,-1358,-7702,-83,-555,5233
34384,-870,-1230,-8218,-954,-261,5196
34394,-886,-1744,-8376,-1606,-354,4939
34404,-988,-1810,-8434,-2183,-1112,4733
34414,-1168,-1556,-8394,-2595,-2418,4465
34424,-1444,-1496,-8456,-2480,-3472,3915
34434,-1554,-1538,-8468,-2369,-3862,3357
34444,-1640,-1694,-8436,-2435,-3447,2958
34454,-1690,-1676,-8392,-2554,-2415,2648
34464,-1478,-1608,-8180,-2689,-1143,2484
34475,-1086,-1494,-8160,-2696,-503,2364
34485,-750,-1376,-8022,-2822,208,2368
34495,-322,-1124,-7952,-3028,769,2515
34505,-126,-962,-7892,-3010,564,2565
34515,22,-674,-7988,-2906,-425,2515
34525,-30,-678,-7956,-2869,-2006,2397
34535,-356,-452,-7706,-2461,-3743,2247
34545,-514,-330,-7618,-1827,-4991,2055
34555,-1018,-176,-7306,-455,-5738,1722
34565,-1018,-176,-7306,-455,-5738,1722
34575,-1080,-356,-7210,397,-5268,1561
34585,-1034,-272,-7320,645,-4487,1526
34595,-1126,-212,-7316,761,-3559,1498
34605,-1032,-286,-7288,782,-2997,1560
34615,-918,-138,-7322,786,-2676,1615
34625,-952,-234,-7346,857,-2622,1635
34635,-972,-60,-7388,855,-2854,1696
34646,-1002,-212,-7530,847,-3268,1670
34656,-1146,-366,-7544,915,-3588,1620
34666,-1248,-460,-7696,1091,-3713,1576
34676,-1188,-488,-7868,1248,-3537,1485
34686,-1186,-560,-7844,1293,-3207,1369
34696,-1128,-612,-7842,1347,-2736,1283
34706,-1086,-644,-7926,1357,-2290,1299
34716,-882,-552,-7990,1305,-2131,1378
34726,-884,-734,-7918,1248,-2117,1371
34736,-846,-698,-8002,1277,-2347,1397
34746,-922,-770,-8016,1329,-2759,1421
34756,-982,-768,-8026,1339,-3205,1428
34766,-1130,-728,-8052,1228,-3518,1411
34776,-1168,-792,-7936,1070,-3594,1394
34786,-1166,-758,-7948,960,-3459,1322
34796,-1202,-762,-7854,920,-3198,1241
34806,-1214,-810,-7844,1005,-2883,1212
34816,-1180,-848,-7836,1127,-2579,1274
34826,-1100,-826,-7858,1268,-2426,1357
34836,-1048,-726,-7902,1347,-2456,1479
34846,-998,-838,-7956,1341,-2617,1605
34856,-1042,-716,-7982,1307,-2897,1739
34866,-1026,-856,-7940,1181,-3122,1804
34876,-1056,-842,-8012,1054,-3278,1816
34886,-1108,-902,-7952,982,-3349,1816
34896,-1196,-910,-7984,921,-3281,1827
34906,-1160,-896,-7920,834,-3147,1857
34916,-1134,-886,-7844,792,-2962,1864
34926,-1080,-808,-7846,749,-2742,1884
34936,-1144,-732,-7836,651,-2647,1893
34946,-1178,-764,-7830,550,-2665,1871
34956,-1218,-770,-7712,494,-2736,1808
34966,-1210,-746,-7696,477,-2770,1790
34976,-1268,-756,-7684,414,-2739,1793
34987,-1356,-760,-7618,332,-2669,1783
34997,-1300,-700,-7696,-117,-2233,2025
35007,-1412,-768,-7748,-497,-1834,2264
35017,-1658,-822,-7862,-929,-1375,2598
35027,-1490,-738,-7910,-1453,-1037,3164
35037,-1226,-778,-8034,-2204,-745,3732
35047,-1176,-716,-8192,-3015,-148,4202
35057,-1148,-740,-8450,-3714,189,4591
35067,-1174,-812,-8654,-4272,511,5006
35077,-1590,-870,-8790,-4803,823,5491
35087,-1864,-1006,-8806,-5560,1366,6116
35097,-2142,-912,-8724,-6667,2323,6949
35107,-2054,-890,-8638,-8367,3705,8025
35117,-1468,-844,-8450,-10759,5444,9429
35127,-634,-738,-8320,-13561,7445,11129
35137,652,-178,-8564,-16438,8990,12689
35147,1372,540,-9046,-18927,9592,13625
35158,1360,1814,-8866,-20341,9085,13693
35168,1884,2412,-9222,-20391,7759,13003
35178,1126,3140,-9020,-19302,5452,11948
35188,1236,3308,-8672,-17520,2658,10861
35198,1522,3180,-8064,-15799,51,10072
35208,1632,2874,-7742,-14784,-1154,9869
35218,2002,2954,-7146,-14677,-494,10276
35228,2348,3106,-6746,-15373,1087,10699
35238,3036,3242,-6194,-16333,2967,10720
35248,3600,3754,-5836,-17335,4209,10337
35258,4300,4196,-5776,-17556,4138,9411
35268,4238,4476,-5098,-17280,2665,8275
35278,4530,4882,-5064,-17117,2151,7275
35288,4662,4826,-5454,-16369,1656,6402
35298,4738,4636,-4540,-15562,959,5803
35308,4678,4922,-4272,-15165,794,5447
35318,5346,5400,-3868,-15360,1134,4833
35328,5886,5920,-3812,-15458,1211,3943
35338,5822,5728,-3334,-15270,1369,2917
35348,5862,5666,-2710,-14565,1180,1797
35358,6438,5908,-2486,-13832,1284,478
35368,5878,5676,-2306,-13315,926,-712
35378,5892,5630,-1834,-13017,646,-1917
35388,6190,5488,-904,-13059,1022,-3268
35398,6468,6126,-924,-12895,1174,-4609
35408,6240,6712,-446,-12687,1476,-5934
35418,5794,6802,148,-11714,1919,-7235
35428,5424,6904,164,-9911,1789,-8548
35438,4648,6772,508,-5737,1381,-10545
35448,4722,6616,442,-3960,535,-11522
35458,4722,6616,442,-3960,535,-11522
35468,3088,6230,452,-2329,-722,-13057
35478,2838,6866,572,-1975,-1090,-13588
35488,2272,7016,442,-1242,-831,-14268
35499,1754,7564,760,-574,-1085,-14742
35509,1292,8130,736,684,-694,-15008
35519,262,8192,846,2314,14,-15240
35529,-246,8266,650,4601,942,-15395
35539,-394,8512,614,6649,1273,-15481
35549,-534,8040,186,8777,1774,-15617
35559,-972,7444,-134,10366,2332,-15759
35569,-1394,7162,-698,11778,2830,-16103
35579,-1580,6776,-1090,12627,3167,-16575
35589,-2302,6596,-1536,13249,3418,-17081
35599,-2630,6672,-1654,14050,3486,-17621
35609,-4430,7240,-1880,15215,3568,-18020
35619,-2878,6178,-2482,16401,3297,-18874
35629,-4336,5314,-2660,18365,3065,-18208
35639,-4436,5154,-3010,20444,1924,-17620
35649,-4662,4728,-3430,22567,932,-16926
35659,-4916,3818,-3434,24381,167,-15982
35670,-5138,3204,-3800,25430,277,-14914
35680,-5340,2592,-4320,26140,1840,-13567
35690,-5172,2182,-4312,26736,3567,-12140
35700,-5530,1732,-4446,27310,4786,-10530
35710,-5030,1064,-4452,27775,5374,-8627
35720,-5282,1208,-5102,27936,5818,-6508
35730,-5046,240,-4822,27594,6226,-4071
35740,-5016,-720,-5306,26968,6653,-1770
35750,-5034,-930,-5690,25584,6506,177
35760,-5376,-1190,-6096,24287,6381,2063
35770,-6032,-1580,-6686,23100,6662,4101
35780,-5864,-1814,-6594,22303,7423,6213
35790,-5420,-2496,-6510,21706,9022,8305
35800,-5558,-3026,-6820,21281,11065,10211
35810,-4280,-3620,-6136,20643,13187,12045
35820,-3446,-4118,-6212,20400,14618,13583
35830,-2290,-4222,-7304,20133,14478,14296
35840,150,-3762,-7780,19764,12838,13903
35850,-230,-3400,-7410,18365,9856,12601
35860,-1716,-3760,-8424,12163,-1195,11406
35870,-2528,-4146,-8676,8596,-5594,11670
35880,-3226,-4230,-8870,4861,-8524,12272
35890,-4320,-4380,-8682,1365,-8935,12725
35900,-4248,-4488,-8774,-1908,-7075,13161
35910,-4464,-4578,-8862,-4504,-3930,13586
35920,-4098,-4656,-8724,-6713,-540,13807
35930,-3512,-4410,-8596,-8529,2360,13795
35940,-3126,-4014,-8656,-10511,4434,13717
35950,-1804,-4126,-8710,-12646,6387,13414
35960,-1698,-3666,-8494,-14829,7128,13158
35970,-2246,-3294,-8160,-17490,8385,13824
35980,-1212,-2838,-8028,-20388,10123,14724
35990,-1178,-2542,-7896,-22670,10454,15576
36000,-338,-1632,-8006,-24287,10332,16367
36011,332,-258,-7920,-25276,9452,16600
36021,622,596,-8078,-25156,9413,16214
36031,744,1342,-8370,-24029,8448,15185
36041,534,1638,-8062,-22291,7405,13765
36051,602,1926,-7440,-20624,6827,12818
36061,1846,2298,-7176,-19483,7385,12453
36071,2590,2524,-6598,-18832,8810,12200
36081,3270,2654,-6438,-18416,9789,11790
36091,3552,2996,-5946,-18675,9767,11108
36101,4408,3756,-6026,-19497,8445,9990
36111,4770,4214,-5918,-20239,6447,8516
36121,4990,4600,-5508,-20262,5215,7071
36131,4596,4714,-4976,-19849,3759,5861
36141,4824,4794,-4578,-19266,1833,4703
36151,5230,5262,-4438,-18787,541,3581
36161,4684,5886,-3942,-18455,-207,2472
36171,4964,5580,-3562,-18210,-494,1199
36182,4638,6412,-2998,-18507,-1451,45
36192,4964,6714,-2522,-18897,-1352,-1075
36202,4610,6906,-1898,-18314,-487,-2365
36212,4854,7014,-1250,-17187,1078,-3730
36222,4722,7326,-938,-15682,1494,-5075
36232,4862,7596,-628,-13864,1277,-6441
36242,4272,7446,-628,-12028,396,-7586
36252,3340,7462,-374,-10523,-437,-8426
36262,2490,7572,-24,-8294,-1431,-9761
36272,2490,7572,-24,-8294,-1431,-9761
36282,2014,7508,648,-6258,-1197,-10644
36292,1862,7712,862,-4970,-842,-11182
36302,1592,7834,1070,-3697,-529,-11857
36312,1038,7368,874,-2225,-716,-12520
36322,686,7198,648,-1007,-1252,-13028
36332,306,7167,-1,659,-3071,1723
36445,306,7052,488,210,-1794,-13525
36455,-4940,7116,-250,11636,2387,-14877
36465,-5328,6980,-632,14198,4009,-14240
36475,-5164,6446,-1044,17458,5462,-14058
36485,-4818,5052,-1956,659,-3071,1723
36515,-4818,5052,-1956,20844,6900,-13234
36525,-3590,2492,-3290,27826,8530,-11485
36535,-3724,2422,-3784,28229,8054,-10765
36545,-4244,1868,-4330,28569,6312,-9592
36555,-4252,1404,-4792,28861,4185,-7920
36566,-5094,188,-4816,29095,2603,-5841
36576,-5374,-852,-5412,28812,1618,-3879
36586,-6194,-1476,-6102,25982,1124,-845
36596,-6276,-1772,-6594,23852,1812,561
36606,-6230,-1904,-6782,21861,2846,1640
36616,-6048,-2010,-6964,20508,4197,2608
36626,-5348,-2126,-6894,19441,5624,3666
36636,-5722,-2102,-6924,18646,7155,5084
36646,-5128,-2726,-6636,18288,9029,7109
36656,-4278,-3428,-6180,18974,10994,9225
36666,-2914,-4092,-5938,20055,12455,10976
36676,-2366,-4332,-5834,21434,12466,12183
36686,-1576,-5118,-6616,22707,10609,12859
36696,-940,-4964,-6748,23606,7171,12899
36706,-872,-4854,-7006,23508,3208,12271
36716,-2088,-4954,-7594,21262,-1186,11667
36726,-3620,-5054,-7872,17648,-5324,11722
36736,-5150,-5112,-7950,13451,-7762,11951
36746,-6066,-5454,-8164,8930,-8610,12170
36756,-6160,-5276,-8148,4297,-7427,12353
36766,-6346,-5220,-8212,162,-4550,12628
36776,-5746,-5062,-8060,-3568,-510,12887
36786,-4718,-4802,-7644,-7027,3633,12763
36796,-3662,-4966,-8032,-10171,6892,12019
36806,-4038,-4392,-7308,-12751,7626,11160
36816,-3668,-4150,-7246,-14866,8608,10624
36826,-3908,-3540,-7278,-16704,11285,10849
36836,-2716,-3230,-6890,-18950,13429,11766
36846,-1566,-3116,-6738,-20911,13440,12921
36856,-88,-2262,-6920,-22399,13228,14184
36866,942,-1338,-7544,-22595,12329,14968
36876,1860,-498,-7730,-21756,10010,15061
36886,1784,42,-8278,-19930,6891,14394
36896,532,670,-8426,-17350,3189,12970
36907,-1024,722,-8586,-15008,-280,11119
36917,-1768,636,-8390,-13517,-2151,9489
36927,-2280,634,-7400,-12821,-943,9043
36937,-636,1088,-6616,-12988,2890,9629
36947,508,1646,-6488,-13800,7362,10157
36957,1958,2348,-6498,-15047,11830,10117
36967,2492,2742,-6304,-15804,13676,9442
36977,3260,3132,-7592,-15610,11927,8417
36987,2616,3452,-6900,-15608,6933,7342
36997,2246,3890,-6658,-15431,3236,6255
37007,1654,4306,-6488,-15270,-121,5055
37017,1854,4556,-6186,-15043,-1379,4029
37027,1726,5098,-6098,-15407,-920,3359
37037,2488,5566,-5942,-16274,742,2689
37047,3102,5774,-5856,-16780,1658,1711
37057,3282,6880,-5058,-16478,147,-908
