# label=ulnar_deviation
# trial=20
# subject=handback_single
# captured_at=20260412_031514
# sensor_count=1
ts_ms,ax,ay,az,gx,gy,gz
100074,-2430,-92,-7746,182,42,-250
100084,-2480,-72,-7696,389,-141,-271
100094,-2450,-60,-7532,548,-176,-221
100104,-2474,-66,-7514,586,-46,-110
100114,-2390,-60,-7522,503,176,4
100124,-2370,-50,-7564,355,387,75
100134,-2252,-54,-7656,197,499,97
100144,-2310,-40,-7734,104,475,-24
100154,-2454,-50,-7742,131,278,-165
100164,-2614,-88,-7630,279,15,-226
100174,-2586,-118,-7614,444,-137,-226
100184,-2542,-122,-7538,570,-102,-205
100194,-2548,-138,-7544,604,81,-155
100204,-2478,-154,-7490,527,328,-86
100214,-2392,-146,-7504,357,542,-37
100224,-2322,-112,-7532,188,653,-17
100234,-2444,-86,-7704,104,631,-75
100244,-2484,-112,-7742,118,502,-147
100254,-2482,-94,-7690,236,354,-175
100264,-2456,-124,-7672,385,255,-183
100274,-2330,-88,-7614,475,232,-151
100284,-2356,-86,-7646,486,252,-186
100294,-2452,-76,-7636,419,294,-193
100304,-2414,-88,-7526,339,320,-163
100314,-2392,-84,-7592,279,354,-117
100324,-2430,-108,-7634,268,363,-127
100334,-2446,-118,-7592,293,351,-126
100344,-2400,-64,-7686,351,359,-61
100354,-2400,-64,-7686,351,359,-61
100364,-2342,-74,-7594,332,442,-39
100374,-2356,-46,-7682,302,446,-77
100384,-2426,-44,-7636,292,393,-113
100395,-2422,-42,-7618,331,322,-127
100405,-2442,-72,-7596,381,256,-158
100415,-2460,-146,-7600,449,227,-181
100425,-2408,-152,-7606,495,244,-195
100435,-2338,-126,-7562,475,302,-187
100445,-2356,-156,-7504,424,369,-154
100455,-2372,-124,-7596,340,414,-99
100465,-2326,-112,-7620,273,425,-55
100475,-2328,-108,-7616,242,400,-9
100485,-2344,-62,-7660,225,356,-27
100495,-2364,-112,-7672,234,286,-62
100505,-2468,-82,-7654,266,207,-90
100515,-2436,-108,-7604,298,157,-110
100525,-2454,-88,-7532,320,152,-118
100535,-2460,-116,-7600,344,200,-89
100545,-2448,-86,-7518,330,274,-62
100555,-2364,-112,-7576,291,351,-40
100566,-2364,-110,-7612,237,387,-45
100576,-2402,-90,-7704,204,381,-73
100586,-2446,-88,-7610,213,337,-99
100596,-2416,-106,-7706,266,282,-121
100606,-2440,-86,-7732,339,261,-187
100616,-2460,-100,-7692,414,243,-255
100626,-2512,-100,-7636,502,233,-300
100636,-2454,-114,-7682,555,252,-297
100646,-2400,-130,-7598,591,298,-279
100656,-2256,-142,-7628,597,346,-233
100666,-2480,-132,-7614,554,349,-206
100676,-2286,-162,-7688,483,370,-163
100686,-2352,-186,-7648,437,374,-180
100696,-2352,-152,-7656,435,326,-202
100706,-2444,-202,-7630,451,257,-199
100716,-2410,-176,-7660,474,213,-203
100726,-2474,-168,-7616,487,176,-196
100736,-2438,-162,-7606,484,167,-172
100746,-2444,-120,-7594,450,212,-167
100756,-2412,-154,-7604,419,270,-180
100766,-2386,-184,-7582,375,317,-98
100776,-2364,-158,-7578,360,313,-70
100786,-2336,-180,-7608,322,292,-66
100796,-2406,-222,-7636,313,252,-72
100806,-2430,-140,-7720,314,227,-111
100816,-2424,-114,-7716,354,207,-174
100826,-2416,-150,-7676,420,205,-218
100836,-2398,-148,-7708,503,179,-335
100846,-2464,-138,-7644,596,110,-422
100856,-2492,-154,-7568,670,21,-421
100866,-2416,-226,-7594,701,7,-398
100876,-2428,-234,-7550,709,39,-320
100886,-2404,-268,-7420,654,103,-211
100896,-2408,-308,-7494,560,177,-131
100907,-2368,-250,-7542,442,199,-73
100917,-2394,-272,-7474,313,161,-49
100927,-2332,-38,-7686,267,93,-36
100937,-2470,-38,-7618,171,49,-201
100947,-2596,-444,-7750,109,-54,-431
100957,-2738,-276,-7608,273,-217,-386
100967,-2858,-216,-7540,393,-353,-389
100977,-2720,-258,-7424,564,-293,-402
100987,-2566,-264,-7392,642,-38,-378
100997,-2484,-350,-7462,573,326,-322
101007,-2574,-274,-7538,374,586,-293
101017,-2596,-300,-7500,194,732,-292
101027,-2522,-260,-7532,111,818,-214
101037,-2430,-208,-7454,152,883,-107
101047,-2336,-196,-7512,233,915,-56
101057,-2334,-216,-7526,242,866,-84
101067,-2422,-184,-7604,172,700,-139
101078,-2442,-172,-7630,98,560,-212
101088,-2530,-182,-7620,50,507,-282
101098,-2502,-202,-7654,112,573,-276
101108,-2412,-248,-7680,223,753,-272
101118,-2398,-302,-7632,273,889,-292
101128,-2378,-284,-7664,262,885,-280
101138,-2410,-258,-7592,200,807,-238
101148,-2350,-240,-7500,153,738,-194
101158,-2280,-166,-7670,113,765,-139
101168,-2280,-166,-7670,113,765,-139
101178,-2342,-118,-7698,91,792,-131
101188,-2204,-122,-7570,179,694,57
101198,-2148,-218,-7668,233,595,89
101208,-2188,-186,-7712,234,448,34
101218,-2260,-166,-7716,235,260,-8
101228,-2254,-138,-7636,257,81,-12
101238,-2328,-136,-7698,276,-17,-34
101248,-2408,-168,-7610,302,-33,-49
101258,-2416,-184,-7562,305,41,-45
101268,-2378,-162,-7520,278,108,-29
101278,-2350,-168,-7586,252,141,10
101288,-2408,-150,-7596,218,192,76
101298,-2380,-136,-7630,208,257,87
101308,-2454,-128,-7694,243,290,59
101318,-2418,-102,-7618,313,308,37
101328,-2382,-142,-7666,388,342,35
101338,-2386,-156,-7650,459,395,59
101348,-2236,-354,-7876,516,462,49
101358,-2286,-70,-7662,475,502,-42
101368,-2388,-128,-7546,398,421,-64
101378,-2334,-184,-7744,452,372,-59
101388,-2380,-170,-7552,475,310,-9
101398,-2354,-220,-7606,485,339,-27
101408,-2332,-176,-7578,545,409,-55
101419,-2332,-216,-7562,536,473,-23
101429,-2306,-218,-7548,450,550,46
101439,-2292,-242,-7540,374,585,103
101449,-2292,-236,-7620,287,566,99
101459,-2314,-198,-7678,219,523,60
101469,-2384,-180,-7644,214,454,26
101479,-2400,-210,-7688,272,377,10
101489,-2368,-206,-7710,361,361,-8
101499,-2368,-160,-7702,440,418,-37
101509,-2346,-198,-7656,490,489,-42
101519,-2342,-188,-7584,491,554,-26
101529,-2228,-192,-7660,462,608,-22
101539,-2258,-218,-7640,421,642,-10
101549,-2268,-366,-7704,381,626,0
101559,-2312,-4,-7590,353,538,6
101569,-2226,-230,-7636,290,484,-8
101579,-2290,-184,-7712,316,463,8
101590,-2238,-216,-7646,316,427,43
101600,-2288,-178,-7678,314,466,71
101610,-2272,-190,-7700,253,499,99
101620,-2226,-194,-7668,190,504,66
101630,-2274,-178,-7712,192,457,0
101640,-2276,-136,-7664,231,378,-17
101650,-2276,-214,-7662,284,330,-21
101660,-2246,-184,-7642,341,288,-40
101670,-2240,-136,-7596,356,255,-36
101680,-2228,-192,-7660,342,271,-5
101690,-2200,-166,-7710,303,315,-12
101700,-2206,-162,-7684,269,357,-22
101710,-2234,-226,-7686,259,360,-20
101720,-2256,-156,-7738,278,340,-34
101730,-2208,-150,-7710,327,318,-52
101740,-2208,-176,-7658,382,296,-101
101750,-2278,-122,-7694,423,251,-168
101760,-2328,-176,-7682,447,186,-186
101770,-2312,-142,-7630,469,181,-178
101780,-2266,-184,-7646,476,239,-134
101790,-2242,-232,-7628,474,321,-92
101800,-2204,-260,-7626,434,394,-46
101810,-2198,-258,-7632,369,422,-45
101820,-2242,-222,-7740,293,396,-91
101830,-2294,-204,-7664,268,325,-110
101840,-2286,-144,-7654,292,279,-110
101850,-2274,-156,-7684,346,266,-119
101860,-2256,-160,-7650,392,295,-110
101870,-2188,-176,-7700,411,351,-87
101880,-2192,-146,-7702,396,393,-131
101890,-2254,-196,-7738,384,373,-168
101900,-2306,-244,-7642,405,305,-151
101910,-2258,-246,-7590,437,256,-136
101920,-2300,-270,-7584,461,242,-90
101931,-2266,-252,-7552,448,290,-37
101941,-2208,-238,-7578,383,354,7
101951,-2216,-186,-7648,279,411,42
101961,-2148,-210,-7720,187,447,63
101971,-2226,-204,-7792,135,444,-31
101981,-2330,-154,-7774,180,364,-106
101991,-2314,-170,-7730,295,258,-107
102001,-2298,-176,-7690,428,207,-128
102011,-2244,-220,-7564,521,207,-118
102021,-2228,-234,-7562,533,276,-51
102031,-2158,-228,-7566,449,373,1
102041,-2174,-194,-7664,320,437,-1
102051,-2212,-222,-7702,171,434,-16
102061,-2212,-222,-7702,171,434,-16
102071,-2266,-222,-7614,337,274,-92
102081,-2244,-196,-7624,433,193,-70
102091,-2188,-190,-7632,463,151,-67
102102,-2256,-216,-7622,415,177,-62
102112,-2208,-242,-7674,326,246,-48
102122,-2248,-190,-7706,251,338,-83
102132,-2298,-174,-7716,223,396,-87
102142,-2264,-194,-7732,260,418,-74
102152,-2222,-194,-7664,317,413,-55
102162,-2232,-208,-7690,388,361,-36
102172,-2160,-204,-7648,418,293,-2
102182,-2150,-214,-7668,388,248,14
102192,-2232,-204,-7748,325,239,-42
102202,-2318,-166,-7738,288,245,-118
102212,-2262,-182,-7674,313,291,-129
102222,-2246,-182,-7656,374,351,-120
102232,-2230,-206,-7624,432,387,-102
102242,-2216,-232,-7552,455,371,-54
102252,-2194,-222,-7628,411,349,14
102262,-2158,-236,-7516,333,338,80
102272,-2130,-248,-7656,239,371,74
102282,-2236,-224,-7798,172,399,-10
102292,-2306,-198,-7726,187,378,-81
102302,-2296,-164,-7676,283,332,-99
102312,-2326,-208,-7716,402,293,-106
102322,-2348,-210,-7650,502,242,-116
102332,-2478,-180,-7608,546,259,-93
102342,-2462,-186,-7584,533,366,-39
102352,-2478,-192,-7570,479,593,23
102362,-2464,-128,-7582,434,897,72
102372,-2320,-188,-7602,419,1189,139
102382,-2212,-234,-7780,418,1428,182
102392,-2098,-320,-8008,452,1535,149
102402,-2188,-480,-7842,625,1502,71
102412,-1856,-198,-7860,818,1408,38
102422,-1848,-234,-7734,889,1291,-10
102432,-1840,-268,-7708,942,1103,-30
102443,-1984,-272,-7616,938,905,15
102453,-1954,-268,-7618,860,725,127
102463,-1842,-322,-7548,749,683,207
102473,-1894,-246,-7696,317,674,151
102483,-2020,-278,-7768,171,574,11
102493,-2100,-286,-7712,90,393,-31
102503,-2110,-360,-7794,132,235,-18
102513,-2032,-348,-7802,243,161,-48
102523,-2034,-322,-7718,347,172,-59
102533,-1924,-320,-7712,391,258,-28
102543,-1888,-256,-7682,337,319,-36
102553,-1930,-282,-7688,246,306,-13
102563,-1846,-260,-7682,149,220,3
102573,-1978,-206,-7736,94,131,-27
102583,-2082,-190,-7796,95,75,-62
102593,-2092,-234,-7754,163,66,-64
102603,-2032,-220,-7778,229,70,-64
102614,-2122,-238,-7738,286,92,-114
102624,-2116,-246,-7696,325,136,-103
102634,-2102,-256,-7730,329,188,-101
102644,-2102,-238,-7682,320,257,-85
102654,-2074,-260,-7694,305,318,-73
102664,-2044,-248,-7646,287,368,-70
102674,-1972,-264,-7702,267,376,-51
102684,-1982,-258,-7758,252,359,-53
102694,-1994,-240,-7808,256,303,-44
102704,-1972,-272,-7784,269,246,-47
102714,-2048,-248,-7728,281,200,-73
102724,-2120,-228,-7720,315,142,-45
102734,-2158,-194,-7718,347,113,-16
102744,-2114,-216,-7614,367,153,8
102754,-2120,-218,-7682,357,211,-13
102764,-2102,-246,-7706,334,265,-45
102774,-2064,-272,-7762,311,310,-66
102784,-2056,-270,-7748,299,336,-100
102794,-2058,-260,-7784,328,324,-122
102804,-2094,-296,-7746,381,328,-106
102814,-2030,-274,-7734,420,346,-119
102824,-2088,-310,-7700,443,362,-119
102834,-2054,-302,-7698,446,364,-86
102844,-2018,-254,-7740,407,373,-49
102854,-2030,-250,-7728,355,386,-24
102864,-2022,-252,-7722,311,386,-24
102874,-2106,-240,-7740,289,352,-27
102884,-2086,-270,-7796,308,314,-29
102894,-2088,-256,-7772,353,287,-75
102904,-2142,-250,-7764,401,261,-123
102914,-2136,-284,-7738,457,272,-145
102924,-2100,-254,-7670,478,315,-133
102934,-1940,-272,-7676,398,483,-23
102944,-1952,-288,-7706,312,496,-14
102955,-2006,-260,-7692,246,426,15
102965,-1996,-268,-7762,231,334,37
102975,-2016,-252,-7760,241,223,20
102985,-2084,-256,-7700,280,145,14
102995,-2084,-244,-7698,319,95,3
103005,-2080,-266,-7768,330,93,-12
103015,-2066,-218,-7770,339,146,-11
103025,-2066,-198,-7724,344,231,-21
103035,-2040,-246,-7676,341,304,-38
103045,-2034,-242,-7664,348,341,-3
103055,-2016,-278,-7672,346,339,25
103065,-2024,-278,-7640,332,314,23
103075,-2050,-262,-7680,313,266,19
103085,-2102,-284,-7740,295,222,-2
103095,-2128,-256,-7754,292,223,-29
103105,-2138,-242,-7782,331,255,-74
103115,-2164,-238,-7706,378,282,-96
103126,-2120,-276,-7650,420,341,-69
103136,-2048,-226,-7680,429,409,-28
103146,-2038,-286,-7662,395,474,18
103156,-1950,-224,-7732,345,522,83
103166,-1972,-222,-7764,289,559,72
103176,-1970,-218,-7780,259,537,32
103186,-2004,-254,-7770,275,450,17
103196,-2068,-292,-7728,317,324,-30
103206,-2154,-326,-7678,380,214,-25
103216,-2204,-278,-7652,417,170,-19
103226,-2128,-298,-7732,412,242,1
103236,-2130,-230,-7686,373,417,46
103246,-2036,-212,-7714,315,624,90
103256,-1960,-234,-7730,244,780,139
103266,-1908,-232,-7790,207,824,114
103276,-1898,-198,-7852,231,737,77
103286,-1878,-254,-7824,308,588,60
103296,-1942,-232,-7850,411,422,15
103306,-2014,-278,-7770,523,295,13
103316,-2092,-288,-7702,592,238,45
103326,-2234,-400,-7708,575,366,61
103336,-2294,-442,-7806,538,526,6
103346,-2294,-442,-7806,538,526,6
103356,-2152,-292,-7862,616,1000,-65
103366,-1982,-272,-7874,725,1276,-120
103376,-1944,-144,-7908,893,1441,-170
103386,-1894,-142,-7844,1051,1440,-158
103396,-1788,-182,-7796,1153,1376,-141
103406,-1808,-390,-7606,1242,1275,-151
103416,-1820,-384,-7690,1247,1095,-317
103426,-2090,-486,-7588,1152,886,-530
103436,-2378,-638,-7618,1100,775,-654
103446,-2438,-644,-7570,1110,913,-638
103456,-2220,-664,-7532,1068,1363,-544
103467,-2070,-604,-7562,913,1964,-445
103477,-1762,-474,-7584,751,2484,-359
103487,-1648,-318,-7630,505,2754,-247
103497,-1394,-264,-7536,259,2713,-54
103507,-1120,-314,-7746,138,2527,-29
103517,-748,-298,-8078,125,2344,-69
103527,-562,-306,-8328,199,2063,-126
103537,-278,-278,-8478,338,1542,-204
103547,-40,-248,-8446,525,759,-236
103557,356,-224,-8482,731,-216,-214
103567,864,-108,-8676,987,-1476,-220
103577,1194,28,-8662,1094,-3072,-268
103587,1242,146,-8804,915,-4981,-269
103597,954,-4,-8708,349,-7070,-375
103607,648,-228,-7700,-382,-9179,-633
103617,1064,-388,-8272,-896,-11242,-562
103627,-1066,-820,-7310,-1881,-13411,-522
103638,-1282,-856,-6368,-3199,-16188,-886
103648,-514,-786,-7762,-5644,-19257,-2325
103658,-2088,494,-6346,-7964,-22439,-3822
103668,-3784,-592,-5682,-7952,-28921,-4786
103678,-5096,-764,-4402,-7004,-32430,-6328
103688,-7690,-1536,-4436,-5534,-32430,-8706
103698,-8498,-1606,-3310,-3969,-32430,-10468
103708,-6466,-1520,-2298,-3511,-32430,-11564
103718,-6824,-1942,-350,-2518,-32430,-12694
103728,-6672,-1618,1346,-2105,-32430,-14005
103738,-5606,-2778,2010,159,-32430,-16220
103748,-10236,-3414,2816,2478,-32430,-19525
103758,-11218,-3374,2470,3122,-32430,-18401
103768,-11218,-3374,2470,3122,-32430,-18401
103778,-11406,-3842,2274,1820,-26525,-11785
103788,-10298,-3704,1838,171,-15414,-6962
103798,-8732,-2844,2376,-1190,-8211,-3043
103808,-7452,-2732,2128,-2000,-1830,52
103818,-6194,-2296,2210,-3106,328,2032
103828,-6052,-2190,2388,-3912,-1540,2388
103838,-5652,-1812,2456,-3885,-1604,1802
103848,-5906,-1972,2564,-3138,-2631,497
103858,-6296,-2088,2720,-2355,-3946,-819
103868,-6518,-2112,2872,-1557,-4055,-1603
103878,-6628,-2218,2892,-365,-3017,-1876
103888,-6866,-2414,3018,660,-2078,-1934
103898,-6772,-2814,3058,1408,-443,-1815
103908,-6102,-2936,2986,1508,850,-1416
103918,-5986,-3126,2970,1237,400,-1087
103928,-6318,-3210,2832,808,-979,-975
103938,-6860,-3134,2786,319,-1936,-977
103948,-7304,-3158,2830,-43,-1869,-841
103958,-7380,-3128,2836,-341,-884,-503
103968,-7308,-3050,3048,-580,511,-50
103979,-7078,-3002,3070,-406,1732,427
103989,-6542,-2792,3116,-182,2085,647
103999,-6518,-2948,3068,259,1547,371
104009,-6474,-2978,2908,955,1025,-200
104019,-6630,-3192,2842,1476,179,-915
104029,-6960,-3406,2766,1733,-403,-1421
104039,-7194,-3598,2664,1549,-527,-1597
104049,-7316,-3576,2692,1207,-166,-1445
104059,-7500,-3418,2684,723,595,-894
104069,-7470,-3326,2682,364,1319,-233
104079,-7274,-3194,2724,97,1799,354
104089,-6962,-2986,2662,38,2000,733
104099,-6736,-2886,2686,273,1816,748
104109,-6708,-2976,2674,691,1104,460
104119,-6916,-3114,2516,1035,322,108
104129,-7130,-3290,2474,1134,-20,-239
104139,-6968,-3160,2530,1013,409,-468
104150,-6972,-3114,2504,858,1090,-485
104160,-7084,-3052,2466,773,1465,-322
104170,-6950,-2890,2454,325,1114,238
104180,-6854,-2804,2556,265,937,347
104190,-6760,-2856,2474,406,680,307
104200,-6946,-3030,2374,649,377,161
104210,-6976,-3072,2386,675,136,-101
104220,-7050,-3104,2384,479,299,-286
104230,-7036,-3122,2390,302,735,-292
104240,-7098,-3106,2524,215,1133,-190
104250,-7074,-3102,2550,179,1327,-49
104260,-6934,-3108,2590,157,1353,57
104270,-6744,-3034,2606,220,1161,73
104280,-6776,-3062,2576,359,648,-47
104290,-6996,-3174,2506,509,-44,-294
104300,-7226,-3242,2496,516,-483,-489
104310,-7432,-3298,2496,424,-340,-459
104320,-7452,-3284,2594,261,310,-236
104330,-7404,-3196,2532,169,1156,122
104340,-7172,-3178,2594,170,1801,419
104350,-6850,-3128,2578,255,1942,527
104360,-6650,-3136,2524,417,1470,338
104370,-6800,-3062,2468,533,553,14
104380,-7080,-3108,2456,682,-452,-302
104390,-7394,-3198,2474,784,-1019,-443
104400,-7778,-3332,2620,819,-921,-302
104410,-8428,-3302,2540,789,-85,149
104420,-9944,-3562,2696,752,1610,1247
104430,-10982,-3562,2830,846,4862,3416
104440,-11528,-3830,2838,1141,9904,6389
104450,-10956,-4064,2786,1446,16411,9500
104460,-9964,-3978,2364,1111,23028,12096
104470,-9304,-3894,2196,72,28230,13876
104480,-8518,-3680,1618,-1551,31277,14661
104491,-7802,-3142,1268,-3495,32235,14678
104501,-6620,-2488,684,-4938,32225,14028
104511,-6440,-1842,168,-5553,31812,12789
104521,-6102,-1264,-220,-5536,31149,11330
104531,-5372,-988,-1420,-4883,30677,9920
104541,-5414,-738,-1700,-4399,29751,8737
104551,-5376,-386,-2318,-4699,27792,7965
104561,-4768,244,-2816,-5007,25889,7550
104571,-3768,978,-3620,-5234,23676,7177
104581,-3462,1140,-4228,-5201,21050,6447
104591,-3832,1684,-5002,-4344,18137,5458
104601,-4224,1638,-5060,-3762,15176,4464
104611,-4590,1090,-5194,-415,11362,3231
104621,-4590,1090,-5194,-415,11362,3231
104631,-4512,894,-5492,348,10627,2936
104641,-3666,1016,-5898,1157,9908,2047
104651,-3308,1244,-6132,1370,9505,1617
104662,-3046,1294,-6338,839,8147,1341
104672,-3050,1478,-6674,432,7834,1272
104682,-3168,1380,-6608,238,6959,1226
104692,-3344,1344,-6590,249,6252,1125
104702,-3356,1246,-6694,715,5486,947
104712,-3426,1532,-7276,1443,4959,740
104722,-3036,1192,-7248,1483,4850,501
104732,-3024,1124,-7282,2814,2830,199
104742,-3130,1100,-7066,2830,3389,-95
104752,-3088,996,-7210,3640,3519,-264
104762,-2918,940,-7222,3535,3324,-253
104772,-2984,880,-7338,3296,3415,-167
104782,-2908,740,-7518,3551,3208,-89
104792,-2994,684,-7504,3704,2658,67
104802,-2956,532,-7694,3855,2043,177
104812,-3030,396,-7562,3886,1363,129
104822,-3070,404,-7656,3673,831,0
104832,-3212,344,-7638,3399,605,-68
104842,-4010,604,-7506,3207,545,2
104852,-3126,210,-7594,3163,420,388
104862,-3070,218,-7564,2903,690,296
104872,-3018,142,-7494,2682,817,329
104882,-3050,86,-7480,2575,853,415
104892,-3022,24,-7474,2532,827,515
104902,-2948,-124,-7512,2518,899,543
104912,-2970,-176,-7468,2378,854,404
104922,-3044,-56,-7400,2279,869,225
104932,-3024,38,-7510,2250,866,105
104942,-3068,68,-7506,2208,935,119
104952,-3078,32,-7464,2152,1073,247
104962,-3146,2,-7360,2273,1225,474
104972,-3162,-56,-7362,2557,1498,828
104982,-2932,-256,-7358,2911,1814,1199
104992,-2636,-420,-7362,3214,2020,1252
105003,-2578,-502,-7472,3200,2034,853
105013,-2542,-874,-7806,2887,1636,301
105023,-2782,-250,-7954,2127,1005,14
105033,-3220,-722,-7824,1061,537,121
105043,-3584,-452,-7738,-283,367,930
105053,-3584,-452,-7738,-283,367,930
105063,-3232,-294,-7522,-383,1956,1993
105073,-2930,-300,-7502,91,2829,2534
105083,-2702,-390,-7488,515,3439,2892
105093,-2432,-364,-7472,840,3526,2947
105103,-2260,-650,-7314,1025,3308,2677
105113,-2344,134,-7238,1053,2900,2337
105123,-2196,-70,-7198,1023,2516,2128
105133,-2028,-24,-7164,1126,2395,2094
105143,-2052,28,-7344,1286,2506,2270
105153,-1636,-4,-7718,1500,2643,2497
105163,-1616,-64,-7732,1452,2510,2670
105174,-1452,-10,-7572,1229,2063,2803
105184,-1478,-98,-7614,1203,1366,2866
105194,-1384,-114,-7786,1144,833,2949
105204,-1086,-208,-7778,975,378,2687
105214,-1140,-168,-7834,758,0,1972
105224,-1150,-158,-7884,465,-592,1037
105234,-2202,-316,-8254,339,-1417,198
105244,-2672,-472,-8212,323,-2510,77
105254,-2980,-476,-8018,209,-3169,263
105264,-3278,-612,-8030,273,-3358,510
105274,-3488,-678,-7992,328,-2581,715
105284,-3578,-574,-7728,344,-1383,794
105294,-3490,-560,-7610,333,-343,632
105304,-3436,-512,-7430,354,271,322
105314,-3302,-518,-7316,416,469,59
105324,-3382,-484,-7196,539,413,-175
