# label=flexion
# trial=15
# subject=handback_single
# captured_at=20260412_030647
# sensor_count=1
ts_ms,ax,ay,az,gx,gy,gz
73811,742,220,-7972,931,-224,90
73821,742,212,-7974,947,-225,81
73831,768,198,-7962,952,-237,77
73841,726,172,-7950,946,-235,102
73851,756,160,-7972,935,-204,121
73861,768,120,-7968,916,-170,120
73871,734,104,-8018,896,-157,95
73881,750,142,-7998,881,-136,79
73891,756,198,-7964,887,-131,65
73901,810,200,-7948,905,-117,65
73911,738,180,-7936,940,-119,77
73921,808,180,-7906,969,-119,83
73931,816,218,-7914,979,-96,87
73942,862,216,-8020,988,-83,104
73952,872,140,-7970,1002,-98,120
73962,794,152,-7980,1005,-173,118
73972,814,124,-8032,998,-245,106
73982,804,188,-8024,1000,-279,101
73992,764,180,-8074,997,-275,109
74002,738,216,-8098,989,-244,119
74012,800,202,-8020,954,-160,101
74022,770,172,-8012,955,-145,90
74032,770,172,-8012,955,-145,90
74042,780,148,-7982,916,-213,134
74052,734,146,-7998,905,-266,162
74062,744,150,-7984,878,-296,184
74072,754,150,-7976,861,-270,192
74082,758,164,-7990,878,-226,199
74092,768,156,-7970,925,-198,208
74102,748,186,-7928,969,-215,191
74112,788,190,-8010,986,-222,157
74122,786,136,-7974,1011,-198,140
74132,776,138,-7974,1014,-177,144
74142,786,98,-7942,986,-127,156
74152,822,104,-7976,933,-86,163
74162,918,142,-8028,866,-84,173
74172,912,218,-7986,823,-123,198
74182,898,200,-7966,819,-210,235
74192,900,212,-7990,867,-340,224
74202,848,216,-8018,932,-428,188
74212,778,186,-7962,991,-448,141
74222,808,174,-7974,1014,-367,95
74232,824,140,-7976,1002,-218,80
74242,886,146,-7942,967,-85,80
74252,876,160,-7930,908,-21,80
74262,892,258,-7930,849,-33,81
74272,952,282,-7924,841,-105,96
74283,898,226,-7960,888,-212,108
74293,816,170,-7980,962,-340,103
74303,760,162,-7980,1033,-455,93
74313,702,114,-7998,1076,-487,85
74323,698,76,-8018,1071,-438,83
74333,690,110,-7976,1028,-350,85
74343,702,114,-7942,973,-271,103
74353,710,158,-7960,891,-188,122
74363,750,178,-7924,824,-159,126
74373,754,200,-7950,814,-173,136
74383,758,202,-7962,853,-186,135
74393,744,214,-7902,916,-226,140
74403,760,204,-7950,974,-274,148
74413,798,244,-7942,1039,-303,170
74423,770,224,-7938,1090,-339,193
74433,740,194,-7956,1105,-386,208
74443,692,206,-8008,1105,-423,208
74454,706,86,-7972,1030,-325,141
74464,744,80,-8046,979,-176,113
74474,792,80,-8014,922,-29,103
74484,856,108,-8056,877,35,128
74494,906,174,-7986,859,-35,168
74504,894,236,-7934,864,-209,210
74514,902,250,-7936,892,-371,243
74524,858,236,-7916,918,-536,247
74534,790,232,-7940,961,-675,227
74544,722,122,-7966,1006,-684,190
74554,706,136,-7984,979,-533,143
74564,738,152,-7982,931,-318,106
74574,782,124,-8000,903,-121,80
74584,822,54,-7994,879,-7,63
74594,862,132,-7990,896,-11,60
74604,782,116,-8012,916,-110,79
74614,740,152,-8022,933,-244,100
74624,736,104,-8030,930,-324,110
74634,758,104,-8002,937,-328,115
74644,696,130,-8064,937,-351,111
74654,700,134,-8020,949,-317,101
74664,738,110,-8072,945,-213,92
74674,706,100,-8090,943,-194,85
74684,690,122,-8022,943,-236,77
74694,730,136,-8042,935,-268,95
74704,638,136,-8004,934,-283,116
74714,656,170,-8036,933,-276,126
74724,658,168,-8010,928,-240,144
74734,744,170,-8082,929,-209,152
74744,722,164,-8050,934,-200,166
74754,702,218,-8048,947,-238,176
74764,656,174,-7992,949,-271,168
74774,712,162,-7960,946,-267,142
74784,722,200,-8054,926,-214,122
74795,710,218,-8036,905,-152,131
74805,756,234,-7994,904,-92,145
74815,784,184,-8012,950,-89,163
74825,756,150,-8054,1008,-164,183
74835,760,144,-8024,1034,-288,184
74845,772,110,-8012,1028,-390,185
74855,712,68,-8076,1022,-424,188
74865,666,68,-7990,982,-399,180
74875,718,148,-7988,846,-201,155
74885,718,148,-7988,846,-201,155
74895,734,120,-7938,854,-83,149
74905,766,232,-7922,893,-92,139
74915,844,224,-7988,933,-131,136
74925,826,146,-7964,994,-165,150
74935,764,126,-7958,1029,-238,160
74945,816,142,-8030,1032,-299,162
74955,806,168,-8014,1013,-330,166
74966,772,136,-8028,996,-344,160
74976,776,100,-8056,958,-315,147
74986,778,88,-8080,920,-279,123
74996,744,150,-8008,883,-277,107
75006,744,108,-7950,843,-267,106
75016,810,178,-7874,822,-227,98
75026,708,244,-7942,830,-193,97
75036,734,202,-7968,872,-166,107
75046,716,198,-7912,939,-177,118
75056,724,178,-7946,997,-219,113
75066,780,144,-7994,1043,-271,108
75076,744,142,-8034,1081,-295,107
75086,760,156,-8012,1092,-299,108
75096,734,124,-7964,1070,-286,119
75106,676,90,-7956,1006,-285,130
75116,704,132,-7988,920,-276,131
75126,708,164,-7994,836,-243,130
75136,678,170,-8066,800,-194,127
75146,740,148,-8016,815,-136,117
75156,774,176,-8010,854,-99,122
75166,792,162,-7996,894,-144,141
75176,802,120,-8006,917,-250,183
75186,740,180,-7990,918,-372,217
75196,698,198,-7968,887,-477,246
75206,620,168,-7984,838,-517,254
75216,674,168,-8014,773,-463,257
75226,666,108,-7976,680,-350,268
75236,702,76,-8066,552,-238,293
75246,758,124,-8042,429,-157,328
75256,796,120,-8012,330,-149,341
75266,756,216,-8052,260,-216,366
75276,782,252,-8000,239,-323,388
75286,696,276,-8000,232,-446,419
75296,692,294,-8034,217,-554,433
75307,660,252,-8090,215,-610,430
75317,620,270,-7988,162,-462,410
75327,696,356,-8016,116,-356,410
75337,726,308,-8078,106,-276,406
75347,720,372,-7974,117,-248,408
75357,712,384,-8046,140,-293,395
75367,680,442,-8038,179,-371,369
75377,678,414,-8006,204,-432,339
75387,694,400,-7944,183,-440,315
75397,666,446,-7924,136,-429,316
75407,694,516,-7902,101,-390,308
75417,704,566,-8022,114,-347,281
75427,712,622,-8014,177,-325,243
75437,682,616,-7912,326,-338,191
75447,620,636,-7946,588,-377,131
75457,580,614,-7894,858,-457,45
75467,596,512,-7888,1096,-488,-35
75478,584,466,-7856,1281,-476,-74
75488,582,400,-7892,1398,-451,-72
75498,498,370,-7796,1425,-440,-53
75508,552,424,-7910,1368,-448,-34
75518,576,470,-7850,1199,-447,-3
75528,662,488,-7900,1033,-400,33
75538,624,496,-7864,883,-389,71
75548,646,568,-7914,801,-431,112
75558,608,512,-7888,800,-514,126
75568,572,472,-7868,920,-626,129
75578,528,510,-7920,1087,-729,134
75588,512,444,-8030,1169,-731,146
75598,468,412,-8080,1113,-622,166
75608,484,438,-8102,1008,-422,179
75618,566,396,-8114,926,-216,176
75628,568,392,-8138,869,-68,172
75638,560,396,-8164,828,-49,159
75648,566,378,-8156,811,-103,145
75658,628,388,-8092,798,-152,121
75668,620,390,-8094,802,-189,119
75678,614,402,-8106,820,-244,128
75688,600,450,-8048,831,-285,144
75698,558,476,-8022,823,-284,148
75708,614,500,-8080,779,-299,143
75718,574,522,-8068,710,-295,141
75728,614,484,-7960,631,-266,132
75738,568,532,-8062,560,-218,127
75748,550,484,-7984,500,-131,129
75758,654,522,-8004,495,-51,132
75768,618,516,-7968,553,-90,131
75778,618,516,-7968,553,-90,131
75788,610,558,-7924,675,-314,100
75798,558,532,-7924,699,-408,94
75808,516,576,-7924,707,-456,94
75819,512,578,-7956,692,-432,80
75829,520,580,-7988,687,-360,84
75839,508,630,-8004,712,-299,87
75849,510,580,-8004,740,-246,84
75859,572,618,-7900,780,-217,93
75869,606,608,-7908,825,-220,123
75879,550,570,-7880,900,-244,129
75889,544,578,-7896,976,-301,127
75899,554,610,-7924,1024,-353,128
75909,508,644,-8028,1030,-384,113
75919,478,570,-8098,978,-408,103
75929,392,602,-8082,930,-431,93
75939,418,582,-8070,898,-430,99
75949,414,558,-8060,897,-386,110
75959,490,574,-7978,899,-301,125
75969,550,660,-7932,895,-235,144
75979,494,642,-7876,925,-235,174
75990,546,622,-7920,979,-292,186
76000,538,600,-7962,1024,-363,167
76010,532,560,-8000,1041,-427,137
76020,500,522,-7992,1008,-437,135
76030,526,508,-7998,931,-387,130
76040,564,566,-8060,870,-309,108
76050,558,592,-7940,825,-238,117
76060,514,612,-8016,816,-224,130
76070,496,624,-7940,852,-288,133
76080,500,622,-7952,933,-345,141
76090,470,580,-7988,1008,-342,132
76100,506,584,-8028,1040,-263,104
76110,502,562,-8086,1052,-137,84
76120,556,564,-8006,1038,-33,81
76130,606,538,-8004,999,-7,79
76140,602,572,-8008,932,-55,78
76150,586,604,-7966,842,-161,89
76160,530,598,-7946,791,-272,94
76170,482,590,-7950,798,-311,90
76180,472,608,-8024,856,-200,50
76190,402,582,-8036,866,-155,58
76200,418,576,-7960,875,-117,68
76210,468,592,-7996,894,-82,87
76220,414,622,-7942,882,-91,122
76230,444,610,-7902,834,-127,176
76240,488,618,-7964,780,-169,226
76250,494,602,-8016,707,-221,265
76260,526,626,-7946,595,-271,305
76270,466,598,-7978,468,-346,351
76280,480,634,-8000,404,-399,383
76290,392,690,-8010,395,-395,368
76300,482,708,-7968,452,-332,326
76310,502,752,-7968,540,-226,278
76320,518,778,-7924,602,-142,266
76331,506,754,-7986,667,-115,241
76341,522,758,-7940,774,-108,214
76351,542,682,-7992,880,-71,171
76361,552,654,-8030,950,-41,134
76371,594,602,-8050,971,-31,126
76381,608,588,-8014,960,-67,138
76391,606,648,-8036,965,-135,146
76401,620,696,-7974,978,-210,135
76411,576,674,-7992,1001,-276,126
76421,524,650,-7970,1009,-305,116
76431,516,674,-8056,1008,-295,105
76441,540,664,-8028,987,-218,98
76451,570,626,-8034,962,-112,85
76461,532,652,-8008,940,-23,88
76471,534,688,-8002,907,14,95
76481,598,636,-7984,863,-15,95
76491,560,664,-8024,818,-96,118
76502,558,634,-8052,763,-176,142
76512,524,604,-8064,704,-245,169
76522,500,634,-8050,634,-284,177
76532,534,682,-8056,545,-270,183
76542,484,674,-8076,430,-238,211
76552,528,708,-8040,329,-227,239
76562,526,682,-8036,233,-265,267
76572,468,754,-7920,15,-421,325
76582,458,760,-7992,-136,-451,350
76592,458,760,-7992,-136,-451,350
76602,400,846,-8090,-561,-321,418
76612,404,840,-8132,-926,-189,492
76622,418,864,-8106,-1391,-134,614
76632,450,900,-8130,-1949,-114,765
76642,528,974,-8084,-2445,-185,844
76652,496,1064,-8150,-2884,-267,895
76662,404,1134,-8122,-3243,-411,970
76672,408,1282,-8124,-3486,-543,1037
76682,406,1428,-8054,-3647,-616,1070
76692,382,1598,-8072,-3674,-614,1086
76702,462,1694,-7924,-3568,-583,1088
76712,496,1862,-7844,-3353,-570,1113
76722,524,1926,-7768,-3066,-549,1126
76732,514,1994,-7686,-2776,-526,1102
76742,604,2036,-7654,-2523,-513,1050
76752,574,2078,-7570,-2263,-465,994
76762,542,2168,-7624,-2022,-387,913
76772,562,2128,-7602,-1767,-265,821
76782,584,2258,-7626,-1510,-142,726
76792,626,2296,-7514,-1214,-24,635
76802,662,2344,-7370,-862,60,543
76812,664,2426,-7346,-448,96,432
76822,698,2450,-7338,8,55,323
76832,688,2468,-7270,519,-14,190
76843,720,2452,-7272,1060,-80,43
76853,646,2390,-7212,1593,-80,-91
76863,670,2278,-7288,2087,-28,-236
76873,698,2212,-7324,2477,71,-327
76883,742,2120,-7416,2717,122,-353
76893,706,2044,-7444,2826,88,-336
76903,702,1966,-7486,2795,12,-305
76913,724,1938,-7572,2659,-83,-280
76923,674,1948,-7662,2491,-137,-253
76933,624,2072,-7678,2407,-133,-244
76943,558,2128,-7808,2502,-71,-293
76953,722,2170,-7692,2898,52,-495
76963,958,2754,-7500,4181,19,-1124
76973,1410,3458,-7618,7460,-203,-2297
76983,1238,3412,-8192,13417,-201,-3863
76993,870,2096,-7160,21844,82,-5543
77003,1262,-32,-5054,31215,701,-7416
77014,2064,-2176,-3402,-31775,729,-9454
77024,2290,-4638,-3614,-31775,-1219,-14012
77034,2150,-5494,-4342,-31775,-2093,-15808
77044,1556,-6072,-5088,-31775,-2132,-17260
77054,674,-6546,-6192,-31775,-1180,-17705
77064,424,-6946,-6332,-31775,558,-16953
77074,-28,-7760,-7202,29235,1817,-15380
77084,624,-7298,-8026,22203,2014,-12595
77094,1060,-7214,-9412,14292,2330,-8810
77104,882,-6880,-7962,5815,1779,-4885
77114,2702,-6560,-7338,-628,-1070,-927
77124,2584,-6008,-6542,-4184,-3207,1879
77134,1234,-6384,-6348,-4999,-2789,2982
77144,1592,-6010,-5850,-4097,-1006,3062
77154,1784,-6048,-5718,-1399,-1,2390
77164,1716,-6210,-5912,1204,537,1450
77174,1354,-6308,-5772,2817,983,580
77184,1460,-6376,-6170,3081,735,4
77194,1294,-6266,-6304,2891,801,-293
77204,1192,-6146,-6344,1895,702,-142
77214,1340,-6066,-6374,464,207,347
77224,1346,-5862,-6232,-1178,-442,1025
77234,1200,-5690,-6022,-2714,-674,1694
77244,1304,-5462,-6052,-4240,-1364,2321
77254,774,-5342,-5954,-5733,-2012,2843
77264,640,-5294,-6006,-7160,-2348,3370
77274,448,-5138,-6136,-8556,-2546,4059
77284,546,-4924,-6562,-10148,-1982,4935
77294,296,-4712,-6336,-12003,-1671,6008
77304,284,-4742,-6392,-13748,-512,7099
77314,746,-4614,-6646,-15522,1563,7979
77324,1068,-4418,-6834,-17214,2407,8590
77334,1228,-4474,-7028,-18682,2410,8951
77344,1214,-4160,-7310,-19737,1808,9111
77355,1262,-3856,-7476,-20457,942,9208
77365,1164,-3632,-7472,-20807,142,9222
77375,1056,-3184,-7608,-21006,-532,9059
77385,1158,-2762,-7768,-20730,-1152,8576
77395,790,-1956,-7812,-20149,-1975,8058
77405,1006,-1308,-7926,-18877,-1587,7520
77415,1244,-818,-8106,-16775,-594,6759
77425,1134,-438,-8000,-14294,-80,5942
77435,1060,352,-7454,-8633,563,4364
77445,1060,352,-7454,-8633,563,4364
77455,1114,620,-7310,-5910,624,3656
77465,972,656,-7092,-2437,225,2800
77475,816,730,-7014,-1811,-88,2609
77485,894,508,-7026,-1683,-390,2480
77495,918,562,-7006,-1550,-418,2229
77505,1014,588,-7048,-1377,-450,1880
77515,874,676,-7138,-1227,-644,1513
77526,890,802,-7122,-1041,-746,1203
77536,822,912,-7170,-662,-642,956
77546,894,1016,-7186,-166,-473,697
77556,896,1102,-7252,432,-390,447
77566,850,1170,-7282,1019,-140,280
77576,920,1128,-7354,1555,90,168
77586,898,1010,-7526,2013,180,115
77596,874,860,-7652,2329,124,111
77606,862,796,-7734,2499,8,82
77616,822,690,-7950,2538,-95,25
77626,820,690,-8030,2519,-211,-54
77636,818,602,-8082,2393,-318,-159
77646,766,684,-8098,2243,-401,-285
77656,760,668,-8176,2130,-504,-376
77666,708,630,-8242,2023,-648,-393
77676,666,576,-8182,1898,-740,-350
77686,518,500,-8250,1795,-769,-278
77696,480,470,-8298,1706,-753,-214
77706,476,474,-8350,1614,-681,-157
77716,418,418,-8312,1461,-523,-100
77726,386,438,-8330,1236,-310,-25
77736,408,408,-8370,1006,-131,40
77746,396,428,-8292,816,-13,85
77756,436,472,-8352,719,53,96
77766,490,400,-8232,692,60,82
77776,502,474,-8162,698,-57,64
77786,498,476,-8122,718,-216,79
77796,474,536,-8082,719,-359,134
77806,466,552,-8018,680,-450,199
77816,482,534,-8006,634,-499,245
77826,488,564,-8060,636,-513,281
77836,520,498,-8006,619,-541,333
77846,480,456,-7994,530,-551,363
77856,510,526,-7994,446,-542,366
77867,542,500,-7928,378,-488,374
77877,566,514,-7938,307,-395,386
77887,694,632,-7856,302,-406,359
77897,634,640,-7846,363,-453,355
77907,610,658,-7830,453,-530,371
77917,610,658,-7892,506,-594,362
77927,566,652,-7850,546,-603,327
77937,554,688,-7956,576,-544,281
77947,514,652,-7956,601,-402,241
77957,528,680,-7978,623,-218,206
77967,572,688,-7994,660,-48,191
77977,680,704,-7946,743,44,188
77987,682,730,-7934,817,22,201
77997,618,744,-7956,853,-112,236
78007,650,644,-7970,852,-313,293
78017,620,648,-8006,820,-491,316
78027,464,630,-8054,763,-569,326
78038,412,634,-8040,684,-544,309
78048,438,658,-8082,592,-431,281
78058,434,710,-8066,533,-281,275
78068,462,730,-8000,490,-132,247
78078,550,752,-8018,476,-29,215
78088,582,776,-7956,522,-16,206
78098,610,806,-7928,608,-89,215
78108,546,800,-7952,713,-235,243
78118,566,816,-8000,789,-393,253
78128,466,756,-7930,835,-510,255
78138,422,780,-7970,865,-542,256
78148,462,734,-7974,884,-483,244
78158,432,758,-7964,887,-391,226
78168,458,764,-7950,884,-289,204
78178,508,814,-7904,909,-211,158
78188,546,796,-7926,953,-175,113
78198,530,762,-7904,1015,-161,71
78208,556,752,-7892,1062,-180,66
78218,514,750,-7822,1067,-251,99
78228,620,752,-7942,1028,-311,139
78238,546,744,-7914,979,-353,180
78248,512,748,-7932,947,-380,193
78258,526,710,-8078,910,-392,175
78268,510,722,-8052,887,-367,168
78278,490,752,-8016,863,-312,144
78288,546,714,-8052,877,-251,89
78298,538,774,-7964,914,-202,59
78308,518,774,-7996,970,-183,75
78318,528,784,-8024,980,-215,112
78328,518,786,-8034,922,-328,139
78338,518,786,-8034,922,-328,139
78348,430,774,-8058,848,-320,105
78358,420,760,-8056,823,-267,77
78368,460,786,-8024,821,-195,61
78379,488,750,-8020,834,-137,43
78389,528,766,-7970,843,-137,27
78399,516,778,-7950,852,-188,23
78409,494,804,-7972,872,-272,33
78419,452,806,-7900,902,-365,54
78429,432,794,-7914,916,-436,68
78439,394,794,-7864,911,-427,92
78449,418,808,-7932,889,-367,119
78459,412,758,-7964,911,-300,136
78469,388,736,-7932,922,-255,131
78479,392,752,-7960,893,-203,139
78489,454,746,-7970,812,-179,140
78499,410,766,-7902,762,-183,155
78509,446,808,-7936,764,-185,141
78519,456,832,-7902,805,-165,114
78529,474,796,-7922,840,-168,117
78539,512,846,-7950,868,-189,154
78550,492,816,-7976,923,-208,169
78560,490,842,-7944,973,-250,146
78570,478,802,-7960,1021,-306,144
78580,530,774,-8054,1052,-361,149
78590,458,790,-8000,1072,-410,159
78600,370,816,-7982,1056,-391,157
78610,450,760,-8018,983,-312,134
78620,376,736,-8046,885,-208,135
78630,406,750,-8076,781,-99,142
78640,436,748,-8058,694,14,135
78650,540,754,-8012,668,79,135
78660,564,760,-8084,676,64,143
78670,520,760,-8038,706,-43,148
78680,516,796,-8012,733,-197,173
78690,410,796,-7950,773,-362,188
78700,388,790,-7944,796,-465,197
78710,406,860,-7952,778,-468,211
78720,378,866,-7916,734,-378,237
78730,384,858,-7928,694,-293,287
78740,450,854,-7944,687,-202,297
78750,490,878,-7952,739,-78,246
78760,490,912,-7920,820,-104,248
78770,486,828,-7930,896,-167,255
78780,528,846,-7940,950,-228,250
78790,458,806,-7908,978,-248,233
78800,496,854,-7888,992,-265,225
78810,470,834,-7982,986,-264,210
78820,510,886,-7972,950,-264,211
78830,488,878,-7988,924,-251,211
78840,452,878,-8008,912,-235,209
78850,464,882,-7988,906,-197,193
78860,522,832,-7954,894,-148,178
78870,520,780,-7934,872,-129,184
78880,510,826,-7970,839,-139,207
78891,498,892,-8002,801,-186,227
78901,468,840,-8010,756,-263,256
78911,442,820,-8056,742,-284,257
78921,480,858,-8042,720,-283,202
78931,476,874,-8036,698,-243,142
78941,512,894,-8026,711,-166,108
78951,506,908,-7994,748,-89,80
78961,506,882,-7944,808,-58,68
78971,506,878,-7934,832,-76,70
78981,512,890,-7928,837,-117,101
78991,542,888,-7824,823,-183,140
79001,510,922,-7860,822,-282,166
79011,490,886,-7888,859,-339,182
79021,474,918,-7948,893,-346,143
79031,504,918,-7996,929,-328,133
79041,504,852,-8026,968,-261,124
79051,446,856,-8008,985,-203,97
