# label=flexion
# trial=16
# subject=handback_single
# captured_at=20260412_030652
# sensor_count=1
ts_ms,ax,ay,az,gx,gy,gz
79062,496,822,-7984,985,-169,72
79072,504,850,-7924,941,-157,59
79082,506,906,-7952,897,-166,61
79092,504,936,-7966,887,-190,73
79102,438,998,-7930,902,-215,78
79112,410,974,-7954,954,-246,100
79122,446,922,-7970,983,-286,112
79132,448,922,-8000,983,-302,139
79142,434,844,-8024,958,-209,130
79152,434,844,-8024,958,-209,130
79162,428,876,-7944,907,-212,162
79172,468,878,-7968,845,-268,189
79182,450,888,-7968,803,-290,180
79192,514,934,-7982,784,-275,168
79202,498,914,-7954,800,-244,155
79212,488,860,-7972,835,-245,155
79222,528,894,-7998,879,-286,153
79232,454,896,-8038,925,-341,146
79242,452,888,-7960,953,-355,125
79252,484,910,-7930,946,-309,121
79262,482,924,-7926,901,-247,141
79272,478,898,-7978,849,-196,136
79282,458,942,-8004,811,-161,119
79292,480,900,-7976,792,-145,100
79302,500,986,-7960,797,-144,100
79312,484,970,-7980,813,-169,115
79322,500,910,-7964,845,-219,127
79332,402,978,-7948,898,-325,162
79342,376,936,-7972,935,-440,195
79352,398,940,-7952,952,-481,201
79362,332,928,-8000,953,-430,190
79372,350,904,-8010,958,-313,181
79382,404,926,-7988,946,-161,179
79392,468,932,-7988,907,-51,174
79403,518,964,-8048,873,-36,200
79413,514,936,-7988,831,-86,211
79423,560,886,-7930,851,-196,209
79433,496,938,-7942,914,-323,207
79443,466,934,-7942,988,-418,208
79453,448,946,-7950,1025,-454,186
79463,452,910,-7888,1043,-443,193
79473,454,900,-7924,1035,-338,206
79483,416,878,-7976,993,-227,188
79493,514,846,-7996,914,-135,163
79503,538,852,-7964,785,-89,145
79513,544,944,-7980,714,-84,160
79523,588,918,-8002,690,-140,129
79533,520,928,-8014,719,-260,134
79543,472,928,-8026,795,-406,144
79553,420,962,-7934,879,-515,151
79563,396,914,-7954,946,-570,153
79574,366,890,-7976,973,-522,129
79584,406,896,-7958,837,-212,80
79594,640,976,-8054,737,-119,44
79604,276,938,-7884,587,-142,36
79614,412,1008,-7940,642,-159,121
79624,490,1044,-7918,719,-115,97
79634,510,1076,-7896,771,-109,94
79644,402,1018,-7912,839,-151,104
79654,346,1010,-7942,925,-251,127
79664,366,932,-7938,1022,-320,123
79674,382,900,-7868,1096,-312,93
79684,406,900,-7856,1108,-236,83
79694,454,910,-7938,1070,-154,80
79704,420,966,-7948,974,-153,79
79714,392,960,-7852,924,-200,105
79724,408,978,-7906,951,-270,125
79734,450,1020,-7908,991,-290,125
79744,484,978,-7894,1020,-285,137
79754,460,1006,-7968,1061,-270,147
79764,462,942,-7946,1098,-287,138
79774,474,940,-7964,1130,-314,115
79784,440,874,-7998,1137,-297,94
79794,416,900,-7998,1102,-248,74
79804,446,890,-7990,1052,-154,42
79814,468,916,-8038,989,-75,26
79824,462,990,-8032,946,-42,43
79834,510,944,-7992,943,-67,70
79844,432,1002,-7932,992,-148,89
79854,446,910,-7960,1041,-254,97
79864,420,888,-7972,1091,-332,91
79874,418,858,-7908,1103,-357,69
79884,386,912,-7962,1079,-366,42
79894,358,910,-7946,1028,-310,24
79904,386,948,-7988,1001,-189,24
79915,450,918,-7962,908,-107,14
79925,426,918,-8022,880,-34,41
79935,490,920,-8042,888,-18,49
79945,476,980,-8044,916,-60,42
79955,516,952,-7956,972,-137,77
79965,470,978,-8024,1023,-212,89
79975,440,930,-8062,1058,-293,79
79985,390,946,-8072,1084,-334,64
79995,386,910,-8052,1069,-301,73
80005,324,874,-8026,1013,-253,90
80015,308,856,-8020,942,-215,97
80025,404,894,-8012,879,-168,99
80035,406,942,-7960,848,-109,124
80045,406,942,-7960,848,-109,124
80055,488,978,-7956,856,-164,127
80065,502,966,-7888,910,-203,123
80075,470,948,-7920,969,-251,115
80086,436,924,-7912,1003,-280,138
80096,408,940,-7902,981,-316,161
80106,402,922,-7944,949,-337,179
80116,402,904,-8016,940,-307,179
80126,396,938,-8012,938,-233,169
80136,434,888,-8034,947,-146,160
80146,510,894,-7992,958,-108,149
80156,462,918,-7996,970,-129,132
80166,446,902,-8012,975,-188,116
80176,448,918,-7990,953,-248,115
80186,416,902,-7972,933,-278,127
80196,418,892,-8004,918,-273,129
80206,460,914,-8008,913,-231,127
80216,484,898,-7984,924,-194,131
80226,440,942,-7944,950,-198,140
80236,436,902,-7972,955,-247,144
80246,474,904,-7854,924,-292,148
80256,466,974,-7960,889,-305,165
80266,428,1002,-7952,885,-286,167
80276,434,974,-7934,928,-244,148
80286,454,908,-7932,970,-192,120
80296,456,908,-7976,993,-164,120
80306,484,910,-7970,983,-172,123
80316,472,930,-7990,951,-188,125
80326,448,910,-7984,917,-237,145
80336,408,942,-8002,891,-297,168
80346,596,1014,-7930,874,-339,179
80356,578,1032,-7844,859,-373,214
80366,596,1082,-7886,866,-449,228
80376,452,950,-7944,913,-522,198
80386,454,964,-7936,999,-579,127
80396,390,868,-7964,1057,-529,60
80406,432,898,-7930,1087,-369,2
80416,412,840,-7986,1067,-151,-46
80427,474,856,-8024,1026,27,-76
80437,440,830,-8020,976,52,-88
80447,420,872,-7976,954,-66,-68
80457,348,880,-8004,947,-379,37
80467,296,932,-7968,963,-460,66
80477,262,910,-7966,989,-489,90
80487,230,966,-8002,1014,-407,104
80497,284,944,-7962,1057,-298,112
80507,320,908,-7918,1116,-219,110
80517,328,896,-8054,1165,-218,105
80527,364,892,-8018,1214,-284,118
80537,360,854,-7976,1212,-377,103
80547,292,850,-7976,1150,-504,139
80557,200,862,-7994,1075,-598,207
80567,222,910,-8032,1000,-588,226
80577,260,906,-8068,958,-477,223
80587,274,896,-8060,959,-309,213
80598,338,862,-8034,978,-159,193
80608,400,858,-8052,990,-94,177
80618,474,858,-8002,987,-108,165
80628,456,912,-7990,968,-146,157
80638,498,910,-7966,931,-218,163
80648,416,892,-7928,884,-280,173
80658,424,884,-8006,869,-348,184
80668,404,920,-7958,907,-402,179
80678,412,914,-7954,980,-417,159
80688,376,870,-7962,1057,-410,140
80698,348,792,-7952,1093,-405,114
80708,336,832,-7944,1066,-361,88
80718,330,828,-7854,1026,-263,73
80728,300,860,-7850,1011,-163,62
80738,342,886,-7888,1033,-89,50
80748,366,850,-7922,1092,-56,71
80758,362,838,-7930,1146,-68,79
80768,410,846,-7912,1194,-126,99
80778,368,822,-7946,1250,-189,118
80788,396,804,-7942,1290,-255,134
80798,338,782,-7990,1287,-316,125
80808,354,770,-7976,1260,-355,122
80818,386,806,-7960,1195,-336,110
80828,380,824,-7918,1119,-267,116
80838,388,824,-7998,1080,-206,112
80848,388,866,-8046,1096,-182,114
80858,362,820,-7964,1151,-185,109
80868,370,800,-8048,1222,-238,121
80878,370,772,-8056,1274,-284,126
80888,348,776,-8130,1285,-310,138
80898,360,732,-8040,1267,-343,148
80908,368,736,-8022,1220,-409,161
80918,162,710,-8048,1033,-541,177
80928,186,726,-8018,937,-459,147
80939,224,756,-8034,871,-242,108
80949,290,770,-8030,807,14,100
80959,404,774,-7998,756,178,131
80969,488,760,-8040,744,175,160
80979,454,780,-7920,762,-10,175
80989,388,832,-7958,778,-293,185
80999,330,790,-7930,773,-541,189
81009,284,760,-7984,755,-643,195
81019,244,784,-7980,730,-588,195
81029,198,746,-7922,688,-423,178
81039,246,806,-7904,651,-205,157
81049,262,822,-7952,629,-26,136
81059,332,896,-7870,633,81,111
81069,460,910,-7888,651,133,110
81079,502,942,-7870,720,57,98
81089,444,946,-7886,838,-124,103
81099,390,846,-7864,961,-297,101
81110,380,808,-7900,1088,-413,96
81120,288,822,-7928,1177,-442,82
81130,244,744,-7978,1186,-381,89
81140,242,730,-7936,1131,-266,99
81150,298,756,-7976,1043,-145,106
81160,342,752,-7988,939,-42,99
81170,404,782,-8020,880,-5,90
81180,364,838,-7994,877,-41,88
81190,404,848,-8064,910,-138,80
81200,376,856,-8056,924,-259,73
81210,318,820,-8020,911,-380,82
81220,256,764,-7988,897,-440,122
81230,270,786,-8074,929,-396,156
81240,262,792,-7972,939,-288,181
81250,344,788,-7988,882,-161,179
81260,350,806,-7982,825,-141,182
81270,384,794,-8002,774,-172,166
81280,370,814,-8052,759,-217,122
81290,348,806,-8056,764,-258,85
81300,356,828,-8030,734,-258,67
81310,356,856,-7994,762,-187,108
81320,364,858,-8022,799,-190,119
81330,364,858,-8022,799,-190,119
81340,332,806,-8036,830,-261,124
81350,300,856,-7940,813,-311,139
81360,274,820,-7942,815,-299,145
81370,282,828,-7938,813,-248,140
81380,316,798,-7956,819,-181,139
81390,390,814,-7920,827,-135,142
81400,380,832,-7896,869,-149,146
81410,382,906,-7994,929,-202,134
81420,380,876,-7950,967,-254,103
81430,376,864,-7996,996,-293,97
81440,360,870,-7946,997,-289,92
81451,298,870,-7950,953,-250,88
81461,292,838,-7926,904,-200,72
81471,304,882,-7930,871,-125,67
81481,306,866,-7976,874,-77,64
81491,304,882,-7916,913,-77,65
81501,310,868,-7942,950,-120,76
81511,274,886,-7998,985,-195,100
81521,266,848,-7966,1014,-264,115
81531,272,860,-7942,1017,-284,120
81541,310,856,-8014,995,-286,140
81551,278,864,-7946,970,-280,164
81561,238,816,-7940,920,-261,171
81571,288,882,-7972,868,-239,170
81581,348,908,-7966,827,-196,178
81591,368,886,-7928,820,-141,186
81601,376,916,-8032,863,-99,185
81611,378,902,-8044,926,-117,164
81622,348,888,-8006,975,-178,154
81632,366,814,-8034,970,-252,159
81642,374,814,-8106,928,-287,168
81652,328,818,-8112,855,-287,167
81662,322,810,-7988,768,-259,157
81672,300,832,-8086,700,-236,159
81682,328,856,-7960,641,-215,175
81692,322,890,-8016,614,-222,187
81702,322,948,-7950,565,-223,200
81712,446,956,-7976,555,-186,190
81722,360,920,-7922,587,-184,157
81732,304,872,-7862,586,-235,144
81742,342,878,-7936,506,-226,133
81752,342,878,-7936,506,-226,133
81762,298,948,-7992,250,-55,117
81772,336,1020,-7964,138,98,102
81782,390,1036,-7990,108,224,82
81792,462,1038,-7978,180,265,64
81802,452,1092,-7948,299,218,60
81812,468,1084,-7932,429,101,63
81822,460,1126,-7912,581,-49,72
81832,406,1094,-7850,708,-171,87
81842,386,1070,-7816,805,-231,65
81852,346,1060,-7856,846,-236,37
81862,348,1058,-7916,832,-181,15
81872,310,1056,-7868,795,-104,16
81882,368,1114,-7888,795,-39,21
81892,384,1070,-7912,843,-1,56
81902,416,1078,-7916,909,-9,82
81912,456,1070,-7940,982,-67,89
81922,414,1048,-7862,1054,-139,94
81932,448,1050,-7904,1113,-240,108
81942,426,1068,-7858,1145,-370,116
81952,320,1018,-7884,1144,-476,123
81963,308,1040,-7922,1112,-530,121
81973,294,1072,-7930,1076,-495,124
81983,314,1042,-7922,1049,-365,149
81993,406,1074,-7936,1051,-180,157
82003,448,1036,-7874,1045,-48,151
82013,476,1044,-7906,1042,-48,138
82023,498,1040,-7868,1050,-158,132
82033,454,1034,-7984,1077,-326,117
82043,402,998,-8016,1120,-449,96
82053,394,972,-8032,1175,-475,66
82063,324,984,-7956,1198,-453,59
82073,324,994,-7914,1133,-345,88
82083,356,1076,-7934,1040,-158,111
82093,406,1062,-7924,959,-50,117
82103,298,1088,-7876,978,-31,104
82113,456,1078,-7890,1008,-9,88
82123,554,1080,-7880,1075,-109,66
82134,912,1026,-7730,1282,-138,-57
82144,1632,1518,-7420,1799,-508,-585
82154,2382,2638,-6794,7598,-3282,-4763
82164,1048,1556,-7240,15710,-4904,-8094
82174,-518,-290,-6384,26054,-5963,-11608
82184,-832,-1762,-4142,-31775,-4915,-13921
82194,856,-2592,-2582,-31775,-1880,-15282
82204,2100,-2996,-3190,-31775,770,-16609
82214,2254,-3980,-3852,-31775,2893,-17813
82224,1914,-5024,-4682,-31775,4855,-18655
82234,1460,-5412,-5266,-31775,4783,-18779
82244,1276,-6196,-6192,-32149,3616,-18222
82254,1294,-6976,-6418,27775,1944,-16713
82264,1218,-7434,-7404,21032,685,-14097
82274,1824,-7948,-8690,13868,-274,-10549
82284,1058,-8174,-7414,7357,-880,-6145
82294,1428,-7706,-6740,1178,-1636,-1752
82304,1850,-7242,-6128,-2749,-2658,1555
82314,1312,-7160,-5614,-4528,-3222,3201
82324,1338,-6952,-5720,-4251,-2899,3491
82334,1162,-7086,-5866,-2640,-2038,2936
82344,1216,-7064,-6168,-606,-993,1900
82354,978,-6954,-6156,766,139,751
82364,874,-6690,-6452,1002,942,-134
82374,1064,-6624,-6726,961,1547,-686
82384,948,-6512,-6618,459,1435,-908
82394,736,-6376,-6688,-601,1061,-650
82404,980,-6254,-6664,-1593,643,-77
82414,1076,-5876,-6550,-3106,-50,835
82424,378,-5972,-6654,-4647,-763,1835
82434,606,-5640,-6250,-6430,-1158,2856
82444,128,-5640,-6294,-7424,-1790,3785
82454,-370,-5474,-6148,-9445,-1794,4994
82464,-202,-5394,-6418,-11376,-1757,6324
82475,14,-5156,-6444,-13855,-1326,7576
82485,208,-4806,-6682,-16157,-672,8667
82495,240,-4518,-6704,-18259,536,9386
82505,650,-4264,-6960,-20010,1537,10144
82515,944,-3988,-7294,-21672,1935,10902
82525,1192,-3902,-7198,-22847,2032,11353
82535,1328,-3736,-7498,-23459,1359,11482
82545,1112,-3122,-7688,-23527,364,11309
82555,1138,-2612,-7852,-22772,-525,10918
82565,1136,-1936,-8026,-21717,-1087,10221
82575,902,-1216,-8178,-20011,-1277,9090
82585,644,-598,-7954,-17747,-1200,7906
82595,982,348,-7618,-12100,-451,6127
82605,982,348,-7618,-12100,-451,6127
82615,1092,614,-7276,-9612,-117,5398
82625,1122,1034,-7002,-5398,732,4026
82635,1090,1278,-6984,-3949,469,3498
82646,1360,1226,-6816,-2680,244,3048
82656,1324,1062,-6812,-1604,73,2704
82666,1406,1078,-6810,-943,162,2443
82676,1284,1052,-6716,-542,-47,2134
82686,1310,1028,-6814,-283,-277,1798
82696,1258,1028,-6758,122,-453,1437
82706,1212,1102,-6792,398,-601,1186
82716,1176,1206,-6780,519,-640,1103
82726,1260,1246,-6936,474,-573,1114
82736,1272,1336,-6976,366,-497,1201
82746,1212,1368,-7172,330,-373,1219
82756,1190,1350,-7358,481,-310,1062
82766,1164,1330,-7504,847,-401,745
82776,1048,1352,-7610,1280,-698,429
82786,954,1300,-7782,1688,-878,119
82796,850,1270,-7796,2042,-996,-114
82806,708,1238,-7934,2350,-992,-266
82816,576,1208,-7962,2542,-895,-287
82826,612,1136,-8144,2505,-843,-230
82836,474,1110,-8200,2416,-812,-237
82846,464,1022,-8306,2287,-779,-301
82856,366,932,-8430,2125,-777,-378
82866,270,910,-8398,1958,-716,-422
82876,308,884,-8374,1809,-560,-451
82886,284,884,-8332,1674,-399,-448
82896,280,934,-8348,1622,-201,-461
82906,298,908,-8294,1590,-7,-432
82916,338,976,-8234,1600,46,-362
82926,318,962,-8240,1623,26,-284
82936,336,936,-8192,1597,-44,-206
82946,394,872,-8138,1495,-154,-110
82956,366,848,-8080,1376,-255,-24
82966,292,746,-8026,1207,-377,10
82976,310,778,-7972,1055,-451,8
82987,410,776,-7940,948,-414,0
82997,480,798,-7942,951,-356,6
83007,406,768,-7888,1040,-322,7
83017,488,762,-7846,1191,-300,-72
83027,596,776,-7876,1197,-356,-56
83037,596,776,-7876,1197,-356,-56
83047,468,734,-7866,1165,-507,46
83057,454,750,-7910,1108,-535,103
83067,502,776,-7904,1043,-533,150
83077,594,824,-7936,969,-528,226
83087,458,766,-8024,949,-523,265
83097,394,784,-7966,950,-524,250
83107,472,778,-8002,940,-439,163
83117,516,824,-8054,927,-291,86
83127,516,762,-8010,931,-119,47
83137,590,768,-8008,945,-18,34
83147,596,810,-8012,951,-6,42
83158,594,854,-7972,936,-99,66
83168,540,794,-7962,968,-259,77
83178,498,832,-8002,1014,-408,74
83188,478,844,-8012,1038,-507,79
83198,450,808,-7978,1073,-559,84
83208,322,786,-8024,1105,-579,39
83218,356,788,-8044,1086,-492,-44
83228,312,788,-8010,1037,-336,-80
83238,348,764,-7916,974,-183,-80
83248,336,792,-7976,909,-29,-53
83258,392,824,-7910,853,70,-9
83268,440,846,-7978,844,67,10
83278,428,810,-7938,925,-7,35
83288,426,808,-7996,1028,-109,53
83298,400,746,-8008,1077,-239,51
83308,330,774,-8024,1085,-368,93
83318,312,732,-7986,1072,-429,131
83328,350,768,-8004,1040,-444,163
83338,328,734,-7984,986,-404,170
83348,328,782,-8034,944,-333,161
83358,374,746,-8044,901,-263,161
83368,400,732,-8022,879,-185,173
83378,470,740,-8072,888,-165,168
83388,404,748,-8050,911,-193,151
83398,394,738,-7972,913,-247,134
83408,494,776,-7966,924,-289,129
83418,476,834,-8010,917,-329,143
83428,382,826,-7896,923,-378,157
83438,340,792,-7958,917,-403,182
83448,374,802,-7966,893,-351,171
83458,418,794,-7908,861,-262,150
83468,446,806,-7926,850,-158,127
83478,444,802,-7836,868,-84,117
83488,466,786,-7926,985,-121,78
83499,444,756,-7914,1067,-164,41
83509,418,776,-7964,1127,-190,10
83519,456,804,-7934,1161,-214,-19
83529,414,814,-7956,1210,-232,-7
83539,410,804,-7944,1230,-250,5
83549,366,780,-7952,1222,-269,17
83559,336,814,-8040,1235,-253,30
83569,322,748,-8038,1260,-206,19
83579,338,690,-8066,1247,-134,43
83589,360,696,-7964,1202,-56,77
83599,366,672,-7992,1134,-29,92
83609,392,650,-8024,1060,-47,107
83619,392,700,-7998,1015,-124,127
83629,402,694,-7954,1004,-248,148
83639,432,722,-7980,1005,-384,170
83649,344,740,-7972,1026,-474,173
83659,328,712,-7964,1051,-470,165
83670,378,698,-7924,1057,-363,154
83680,428,744,-7952,1025,-206,158
83690,422,746,-7980,966,-104,176
83700,412,774,-7964,907,-72,215
83710,446,748,-7896,858,-113,266
83720,420,750,-7970,838,-205,286
83730,390,758,-7948,855,-288,271
83740,416,758,-8048,928,-313,229
83750,416,730,-8064,1026,-287,192
83760,482,706,-7984,1086,-252,176
83770,484,720,-7980,1095,-275,171
83780,444,714,-8016,1068,-326,173
83790,440,694,-8000,1008,-323,178
83800,466,754,-8014,950,-303,173
83810,378,732,-8038,938,-294,161
83820,430,734,-8050,949,-248,142
83830,426,696,-8054,962,-188,115
83840,420,698,-8052,976,-121,97
83850,458,694,-8044,961,-54,91
83860,470,672,-7946,959,-36,92
83870,440,630,-7996,989,-103,103
83880,376,690,-8000,1009,-318,121
83890,376,690,-8000,1009,-318,121
83900,306,666,-8020,934,-285,140
83910,378,694,-7990,881,-116,125
83920,428,748,-8034,842,72,98
83930,528,740,-7948,828,230,103
83940,548,772,-7940,862,226,108
83950,532,734,-7942,936,66,111
83960,446,704,-7934,1009,-187,126
83970,410,664,-7962,1037,-419,162
83980,364,644,-7922,1018,-540,181
83990,342,674,-7994,968,-487,196
84000,374,674,-7998,889,-353,199
84011,366,744,-8002,798,-195,195
84021,416,714,-7932,736,-83,200
84031,458,742,-7944,756,-75,197
84041,488,732,-7962,807,-133,193
84051,500,744,-7952,879,-221,191
84061,492,768,-8002,945,-309,191
84071,394,724,-7968,1009,-367,183
84081,386,740,-8028,1053,-376,154
84091,446,702,-8026,1038,-329,141
84101,442,684,-8024,998,-268,140
84111,392,672,-8042,940,-221,150
84121,432,678,-7992,868,-177,147
84131,474,736,-8058,826,-134,140
84141,470,730,-8014,814,-113,130
84151,440,738,-8006,836,-122,100
84161,456,744,-7996,874,-137,81
84171,480,726,-8018,920,-177,58
84182,420,728,-7984,949,-244,63
84192,388,738,-7992,972,-294,98
84202,464,684,-7968,976,-334,125
84212,366,702,-7964,964,-371,153
84222,320,682,-7986,949,-403,176
84232,322,662,-8022,933,-364,174
84242,398,682,-8004,912,-242,147
84252,408,692,-8032,905,-107,123
84262,442,688,-7982,911,-23,98
84272,448,710,-7976,898,-27,87
84282,462,758,-7986,902,-116,87
84292,444,794,-7952,933,-239,96
84302,374,748,-7998,1010,-426,113
