# label=pronation
# trial=5
# subject=handback_single
# captured_at=20260412_031831
# sensor_count=1
ts_ms,ax,ay,az,gx,gy,gz
21298,-2978,-2354,-8658,-494,13172,-11651
21308,-2606,-2264,-8736,-2707,14607,-11137
21318,-1908,-2162,-9012,-4483,15055,-10731
21328,-1642,-1846,-9086,-5741,14988,-10318
21338,-1984,-1840,-8714,-6480,14556,-9903
21348,-2028,-1914,-8618,-6990,13842,-9271
21358,-2062,-1888,-8302,-7858,13604,-8357
21368,-844,-1648,-9018,-8763,13136,-7549
21378,-2728,-2096,-8116,-9732,11743,-6912
21388,-988,-1800,-8818,-10801,11423,-6635
21398,-942,-1668,-9204,-11931,11681,-5995
21408,-684,-1546,-9176,-13036,11030,-5236
21419,-668,-1260,-9178,-13614,9468,-4265
21429,-608,-1064,-8952,-13724,7501,-3146
21439,-566,-598,-8762,-13430,5533,-1980
21449,-650,-216,-8722,-12779,3769,-980
21459,-992,192,-8560,-12129,1978,-160
21469,-1186,458,-8322,-11237,495,329
21479,-1624,744,-8074,-10034,-543,614
21489,-1820,1066,-7866,-8549,-862,754
21499,-2020,1162,-7578,-7178,-579,825
21509,-2164,1210,-7390,-6248,195,924
21519,-2014,1402,-7332,-5435,1405,1010
21529,-1654,1518,-7258,-4681,2856,1065
21539,-1534,1534,-7142,-3999,4349,1188
21549,-1086,1550,-7084,-3370,5603,1315
21559,-792,1498,-7068,-2794,6248,1379
21569,-704,1534,-7070,-2291,6466,1336
21579,-700,1280,-7064,-1530,5960,1046
21590,-846,1260,-7200,-1381,5687,912
21600,-836,1154,-7258,-1341,5364,813
21610,-700,1004,-7442,-1527,5831,758
21620,-688,852,-7548,-1563,6557,638
21630,-636,942,-7732,-1814,6590,466
21640,-584,1004,-7760,-2109,6096,289
21650,-598,994,-7740,-2207,5838,138
21660,-492,1062,-7834,-2157,5706,25
21670,-470,1116,-7828,-1909,5516,0
21680,-506,1082,-7764,-1756,5211,53
21690,-470,1134,-7736,-1855,4949,82
21700,-534,1164,-7764,-2005,4775,56
21710,-536,1170,-7782,-2114,4729,-9
21720,-620,1138,-7852,-2082,4796,-74
21730,-722,1228,-7838,-2042,4921,-65
21740,-730,1286,-7854,-1989,5078,-78
21750,-748,1264,-7888,-1910,5255,-176
21760,-684,1254,-7852,-1825,5435,-281
21770,-722,1216,-7814,-1684,5546,-332
21780,-756,1228,-7740,-1567,5576,-328
21790,-806,1214,-7672,-1542,5571,-300
21800,-850,1146,-7620,-1594,5518,-270
21810,-872,1170,-7608,-1704,5441,-216
21820,-864,1184,-7672,-1785,5442,-170
21830,-896,1180,-7696,-1744,5502,-115
21840,-888,1230,-7728,-1598,5538,-14
21850,-842,1220,-7814,-1443,5555,68
21860,-714,1148,-7806,-1275,5563,46
21870,-672,1148,-7834,-1082,5523,-44
21880,-792,1148,-7790,-911,5398,-155
21890,-832,1078,-7794,-808,5249,-226
21900,-836,1050,-7920,-777,5207,-282
21910,-862,1004,-7876,-796,5266,-320
21920,-880,956,-7994,-833,5414,-322
21931,-896,986,-7994,-906,5635,-272
21941,-858,906,-8036,-1009,5862,-182
21951,-750,840,-8110,-1113,6017,-103
21961,-620,864,-8244,-1126,6107,-61
21971,-732,738,-8046,-1285,5879,11
21981,-732,738,-8046,-1285,5879,11
21991,-706,782,-7922,-1456,5665,95
22001,-632,788,-8064,-1738,5377,196
22011,-654,692,-8080,-1900,5403,179
22021,-600,756,-8132,-2031,5412,142
22031,-640,780,-8040,-2142,5287,100
22041,-672,840,-8082,-2180,5202,84
22051,-660,868,-7960,-2203,5144,66
22061,-678,802,-8058,-2201,5105,33
22071,-710,832,-8008,-2191,5084,39
22081,-732,806,-7978,-2198,5097,46
22091,-800,866,-8000,-2241,5113,56
22102,-774,848,-7978,-2344,5090,31
22112,-742,850,-7980,-2394,5050,-18
22122,-850,868,-7962,-2383,4995,-34
22132,-894,900,-7896,-2339,4905,-48
22142,-896,892,-7870,-2293,4799,-98
22152,-976,878,-7814,-2294,4746,-109
22162,-960,816,-7676,-2315,4740,-60
22172,-966,838,-7710,-2387,4790,1
22182,-960,818,-7676,-2418,4871,40
22192,-954,816,-7608,-2384,4930,70
22202,-948,860,-7674,-2321,4925,86
22212,-916,900,-7740,-2249,4872,84
22222,-934,932,-7702,-2161,4836,65
22232,-874,940,-7700,-2000,4870,7
22242,-896,976,-7768,-1815,4956,-67
22252,-928,964,-7754,-1686,5026,-163
22262,-858,898,-7778,-1642,5090,-233
22272,-874,948,-7832,-1649,5119,-275
22282,-840,880,-7896,-1679,5113,-212
22292,-884,864,-7934,-1762,5209,-123
22302,-864,838,-7968,-1814,5597,-31
22312,-868,822,-7988,-1919,5843,36
22322,-856,976,-8092,-2022,5710,68
22332,-658,884,-8354,-2025,5240,15
22342,-992,838,-7964,-1953,4669,-88
22352,-942,880,-7984,-2018,5192,-59
22362,-846,882,-8038,-2008,5407,-136
22372,-1036,832,-8072,-1943,5077,-234
22382,-948,878,-8078,-1934,5140,-288
22392,-964,826,-8000,-1907,5384,-338
22402,-912,772,-8018,-1814,5671,-378
22412,-928,814,-8066,-1784,5689,-307
22422,-840,758,-8006,-1829,5761,-213
22432,-820,700,-8020,-1927,5651,-148
22443,-934,696,-7972,-2028,5365,-82
22453,-990,762,-7988,-2029,5254,-60
22463,-1018,676,-7948,-2019,5153,-88
22473,-1038,758,-7894,-1955,5136,-95
22483,-1004,742,-7890,-1905,5223,-88
22493,-940,746,-7934,-1894,5322,-86
22503,-932,748,-7928,-1931,5355,-98
22513,-968,754,-7974,-2004,5283,-94
22523,-960,786,-7928,-2067,5215,-76
22533,-934,758,-7988,-2105,5142,-106
22543,-914,810,-7966,-2149,5173,-140
22553,-960,824,-7866,-2192,5116,-173
22563,-988,770,-7828,-2252,5044,-199
22573,-1014,836,-7804,-2234,5005,-224
22583,-992,838,-7804,-2171,5025,-226
22593,-1040,780,-7836,-2078,5069,-317
22603,-1112,716,-7902,-2004,5112,-495
22614,-1292,652,-7886,-2031,5138,-720
22624,-1380,724,-7928,-2156,5158,-963
22634,-1418,704,-7852,-2406,5331,-1071
22644,-1272,754,-7886,-2711,5699,-1010
22654,-1068,772,-7884,-2926,6186,-778
22664,-896,862,-7924,-3041,6557,-459
22674,-756,886,-7976,-2989,6610,-160
22684,-610,924,-7998,-2823,6279,98
22694,-752,914,-7932,-2486,5627,238
22704,-802,972,-7884,-2201,4833,271
22714,-940,778,-7910,-2086,4132,239
22724,-1206,846,-7888,-1886,3666,284
22734,-1282,886,-7878,-1765,3745,241
22744,-1310,878,-7884,-1749,4316,111
22754,-1182,852,-7888,-1766,5017,14
22764,-1068,894,-7884,-1749,5587,-55
22774,-916,906,-7998,-1752,5888,-116
22784,-796,888,-7954,-1771,5890,-161
22794,-780,892,-7966,-1693,5655,-141
22804,-872,892,-7922,-1559,5351,-92
22814,-972,804,-7840,-1422,5090,-61
22824,-1016,798,-7824,-1290,4960,-95
22834,-1176,708,-7846,-1203,4943,-211
22844,-1288,704,-7792,-1152,5001,-342
22854,-1314,654,-7784,-1162,5124,-420
22864,-1276,706,-7846,-1403,5560,-338
22874,-1276,706,-7846,-1403,5560,-338
22884,-1064,690,-7914,-1878,5936,-181
22894,-1044,728,-7900,-1944,5960,-149
22904,-1042,684,-8012,-1922,5839,-154
22914,-1020,670,-8038,-1844,5609,-178
22924,-1048,636,-7934,-1778,5342,-200
22934,-1102,624,-7992,-1747,5128,-207
22944,-1198,614,-7940,-1753,5038,-199
22955,-1220,604,-7914,-1793,5072,-180
22965,-1176,632,-7934,-1854,5196,-156
22975,-1198,630,-7970,-1941,5333,-144
22985,-1118,628,-7928,-2003,5406,-142
22995,-1106,666,-7964,-2012,5406,-118
23005,-1074,702,-7896,-2002,5335,-116
23015,-1052,696,-7918,-1965,5233,-126
23025,-1136,668,-7944,-1913,5165,-136
23035,-1198,636,-8008,-1895,5122,-168
23045,-1234,604,-7960,-1915,5144,-211
23055,-1234,600,-8014,-1961,5214,-249
23065,-1204,544,-7954,-2008,5337,-244
23075,-1140,640,-7986,-2065,5453,-172
23085,-1078,648,-8020,-2119,5507,-117
23095,-1072,686,-8050,-2146,5448,-123
23105,-1126,730,-7930,-2103,5283,-161
23115,-1150,678,-8056,-1997,5117,-203
23126,-1214,646,-7994,-1921,5013,-273
23136,-1208,748,-8012,-1888,5014,-349
23146,-1240,624,-8000,-1994,5143,-467
23156,-1280,700,-8100,-2173,5295,-525
23166,-1112,734,-8012,-2427,5356,-563
23176,-1270,580,-8054,-2710,5384,-644
23186,-1354,580,-8012,-2869,5310,-604
23196,-1300,594,-8054,-2960,5276,-524
23206,-1220,756,-7974,-2951,5349,-340
23216,-1184,656,-7984,-2876,5491,-127
23226,-1164,714,-7924,-2728,5601,73
23236,-1078,586,-7804,-2588,5538,184
23246,-1182,534,-7796,-2495,5261,230
23256,-1418,620,-7832,-2386,4870,338
23266,-1360,610,-7792,-2228,4704,410
23276,-1346,578,-7758,-2109,4827,448
23286,-1302,638,-7850,-1918,5471,814
23296,-1302,638,-7850,-1918,5471,814
23306,-978,816,-7898,-1787,5922,914
23316,-978,746,-7946,-1579,5839,807
23326,-1012,640,-7874,-1356,5598,677
23336,-1014,624,-7862,-1156,5265,582
23346,-1066,620,-7874,-1067,5012,525
23356,-1142,462,-7760,-1126,5027,462
23366,-1126,402,-7826,-1249,5292,411
23376,-1094,486,-7818,-1448,5599,405
23386,-988,562,-7952,-1684,5820,436
23396,-974,586,-7974,-1990,5862,378
23406,-1016,598,-7922,-2206,5693,304
23416,-1044,522,-7894,-2248,5437,220
23426,-1102,548,-7832,-2179,5205,134
23436,-1150,564,-7770,-2064,5077,105
23446,-1142,496,-7790,-2011,5078,133
23456,-1208,492,-7780,-2078,5181,200
23467,-1190,534,-7752,-2234,5301,244
23477,-1102,638,-7854,-2425,5399,230
23487,-1120,640,-7842,-2592,5422,155
23497,-1132,706,-7900,-2641,5361,88
23507,-1162,736,-7870,-2559,5246,8
23517,-1178,690,-7852,-2422,5156,-89
23527,-1272,684,-7800,-2291,5125,-149
23537,-1228,672,-7818,-2213,5188,-179
23547,-1206,646,-7818,-2208,5317,-181
23557,-1178,648,-7796,-2258,5444,-169
23567,-1180,772,-7864,-2298,5505,-121
23577,-1172,764,-7870,-2324,5494,-105
23587,-1170,702,-7848,-2320,5366,-123
23597,-1170,698,-7792,-2196,5190,-109
23607,-1180,736,-7766,-2055,5008,-83
23617,-1236,686,-7758,-1981,4840,-52
23627,-1344,734,-7806,-1963,4682,6
23638,-1318,636,-7744,-1976,4571,81
23648,-1262,728,-7940,-1995,4510,71
23658,-1426,726,-7882,-2130,4411,39
23668,-1530,718,-7796,-2119,4335,94
23678,-1468,714,-7834,-1907,4585,80
23688,-1468,714,-7834,-1907,4585,80
23698,-1432,720,-7758,-1875,4874,34
23708,-1416,792,-7730,-1862,5350,1
23718,-1352,788,-7736,-1816,5393,-28
23728,-1366,744,-7792,-1695,5356,-91
23738,-1364,682,-7800,-1505,5288,-175
23748,-1252,610,-7796,-1304,5229,-234
23758,-1228,628,-7748,-1152,5201,-244
23768,-1188,610,-7750,-1042,5142,-224
23778,-1172,580,-7736,-948,5027,-177
23788,-1122,558,-7780,-853,4816,-121
23798,-1246,502,-7816,-760,4488,-63
23808,-1294,450,-7892,-704,4207,-51
23818,-1460,388,-7912,-782,3886,-65
23828,-1602,384,-7878,-925,3720,-128
23838,-1588,322,-7830,-1068,3852,-199
23848,-1406,424,-7884,-1177,4183,-233
23858,-1124,478,-7786,-1136,4531,-256
23868,-748,522,-7822,-953,4525,-264
23878,-840,520,-7832,-558,3852,-225
23888,-1162,400,-7864,45,2454,-201
23898,-1648,200,-7866,696,717,-166
23908,-2192,24,-7758,1180,-751,-154
23918,-2654,-58,-7720,1243,-1273,-185
23928,-3126,-252,-7752,931,-660,-306
23938,-3398,-258,-7664,307,894,-384
23948,-3418,-270,-7614,-410,3108,-423
23958,-3212,-206,-7560,-1017,5291,-461
23968,-2838,-156,-7560,-1526,7174,-505
23979,-2446,-50,-7592,-1885,8404,-522
23989,-2074,-20,-7656,-2099,8823,-547
23999,-1912,-76,-7742,-2158,8561,-569
24009,-1828,-72,-7798,-2135,8037,-517
24019,-1734,-124,-7922,-2221,7623,-422
24029,-1812,-142,-7778,-2367,7295,-356
24039,-1820,-154,-7856,-2436,7071,-359
24049,-1770,-176,-7840,-2451,6963,-340
24059,-1678,-154,-7842,-2420,6815,-293
24069,-1638,-154,-7838,-2314,6494,-238
24079,-1712,-96,-7816,-2191,6036,-181
24089,-1790,-98,-7810,-2026,5515,-107
24099,-1922,-208,-7776,-1840,4906,-55
24109,-1962,-188,-7714,-1751,4526,-11
24119,-1996,-170,-7706,-1724,4456,6
24129,-2026,-204,-7642,-1757,4673,10
24139,-2034,-186,-7596,-1774,5065,7
24150,-1822,-214,-7660,-1831,5604,60
24160,-1756,-208,-7614,-1929,5514,123
24170,-1762,-146,-7676,-2066,5302,224
24180,-1818,-96,-7734,-2245,5063,324
24190,-1876,-132,-7778,-2409,4880,354
24200,-1948,-74,-7794,-2477,4825,286
24210,-1966,-104,-7810,-2404,4917,148
24220,-1944,-92,-7796,-2201,5097,8
24230,-1868,-100,-7702,-1991,5305,-78
24240,-1852,-128,-7688,-1879,5432,-73
24250,-1796,-138,-7682,-1911,5389,14
24260,-1832,-194,-7680,-2058,5159,170
24270,-1902,-78,-7772,-2285,4792,355
24280,-1920,-74,-7768,-2488,4414,515
24290,-1996,-40,-7824,-2541,4089,615
24300,-2080,-66,-7872,-2453,3870,599
24310,-2248,-82,-7860,-2249,3787,489
24320,-2320,-78,-7796,-2045,3887,312
24330,-2326,-128,-7732,-1878,4174,149
24340,-2358,-56,-7666,-1800,4590,55
24350,-2242,-32,-7682,-1805,5102,-23
24360,-2084,-16,-7648,-1822,5580,-92
24370,-1992,4,-7780,-1741,5869,-129
24380,-1934,-64,-7818,-1579,5860,-144
24390,-2004,-126,-7806,-1426,5554,-142
24400,-1972,-166,-7812,-1320,5264,-157
24410,-1998,-198,-7898,-1310,5022,-178
24420,-2068,-226,-7812,-1419,4967,-217
24430,-2084,-238,-7864,-1572,5025,-276
24440,-2184,-228,-7758,-1781,5209,-302
24450,-2132,-190,-7700,-1950,5452,-305
24460,-2136,-246,-7734,-2019,5615,-304
24470,-2160,-248,-7684,-1992,5687,-302
24480,-2156,-294,-7742,-1949,5640,-276
24491,-2200,-306,-7722,-1908,5528,-294
24501,-2224,-320,-7766,-1854,5415,-305
24511,-2256,-300,-7714,-1809,5338,-269
24521,-2306,-282,-7702,-1830,5318,-213
24531,-2300,-276,-7656,-1899,5344,-176
24541,-2286,-254,-7580,-1979,5399,-160
24551,-2286,-276,-7640,-1986,5478,-135
24561,-2298,-244,-7636,-1949,5567,-91
24571,-2206,-244,-7634,-1899,5648,-90
24581,-2206,-244,-7634,-1899,5648,-90
24591,-2170,-296,-7642,-1917,5539,-69
24601,-2134,-282,-7682,-1918,5469,-53
24611,-2132,-256,-7636,-1891,5424,-69
24621,-2132,-246,-7664,-1848,5379,-68
24631,-2172,-258,-7644,-1804,5360,-63
24641,-2198,-292,-7714,-1793,5335,-48
24651,-2162,-312,-7706,-1822,5349,-32
24662,-2172,-336,-7670,-1860,5397,-15
24672,-2022,-296,-7692,-1893,5469,24
24682,-1882,-306,-7634,-1917,5505,49
24692,-1824,-262,-7674,-1881,5442,63
24702,-1818,-274,-7676,-1760,5215,38
24712,-1752,-242,-7706,-1569,4857,-4
24722,-1682,-260,-7740,-1353,4482,-54
24732,-1548,-270,-7774,-1141,4152,-150
24742,-1260,-308,-7896,-946,3874,-295
24752,-882,-380,-7996,-784,3578,-621
24762,-592,-430,-8008,-769,2970,-1423
24772,-614,-532,-8036,-1023,1755,-2896
24782,-746,-574,-8488,-1387,175,-4964
24792,-932,-628,-8590,-1503,-898,-7330
24802,-1396,-720,-8468,-1262,-1193,-9306
24812,-2238,-1068,-8090,-533,-414,-10697
24822,-2378,-1290,-8170,174,1219,-11546
24832,-2456,-1514,-8160,299,3575,-12289
24842,-2160,-1772,-8236,-278,5735,-13076
24852,-2362,-1860,-8354,-1894,6562,-13790
24862,-2952,-1998,-8534,-4223,6304,-13537
24872,-2780,-1928,-8810,-7365,4978,-12192
24882,-3036,-2350,-8654,-11504,3143,-10010
24892,-2820,-2578,-8660,-16045,336,-7479
24902,-3236,-2612,-8800,-20153,-2726,-5273
24912,-3830,-2246,-8824,-23250,-5962,-3862
24922,-4696,-1616,-8650,-25455,-9053,-3256
24932,-5618,-1028,-8170,-26478,-11291,-2765
24942,-5792,-284,-7668,-26296,-12678,-2221
24952,-7124,-20,-6864,-25722,-14020,-1569
24962,-7170,1082,-6686,-25327,-15174,-363
24972,-6864,1554,-6384,-24487,-16778,904
24982,-7086,2694,-5714,-23746,-19362,1975
24992,-8720,2808,-4702,-22851,-22057,2248
25003,-8842,2066,-2776,-21452,-23605,1787
25013,-8902,3158,-1238,-16823,-24252,-519
25023,-8528,2162,-900,-15674,-23154,-1295
25033,-8798,2450,-94,-15806,-23780,-1287
25043,-8844,2630,110,-15433,-24065,-191
25053,-9964,2740,1556,-14962,-21400,2379
25063,-8602,2850,1728,-13148,-16936,6166
25073,-7644,3612,2558,-10969,-13099,10291
25083,-7732,3744,2536,-7866,-6838,14298
25093,-6996,3822,2368,-4456,-3359,17731
25103,-6806,4144,2630,-660,-2492,20177
25113,-5814,4382,2776,3287,-1914,21826
25123,-4708,4640,2806,7287,-1196,22459
25133,-3988,4608,2542,12003,-557,21849
25143,-4182,4156,2218,16813,377,20429
25153,-3322,3460,1376,21328,133,18335
25163,-2046,3460,928,24106,-1607,15419
25174,-986,4332,272,23669,-2752,12130
25184,-610,5136,592,22443,-3247,8210
25194,192,5496,88,21873,-3227,3864
25204,-84,5770,-90,23311,-5020,-552
25214,-546,4948,-590,26052,-8790,-5082
25224,-2006,3298,-986,28028,-12221,-7975
25234,-3146,2548,-1980,30042,-12711,-9043
25244,-4144,2448,-2344,30750,-10287,-8557
25254,-4092,3132,-2792,30745,-6004,-7704
25264,-3732,2984,-3030,30046,-1320,-7989
25274,-2894,2338,-3598,28752,1484,-9370
25284,-2480,1834,-3874,26723,2217,-11191
25294,-2554,1584,-4232,24875,2297,-12644
25304,-3240,866,-4926,23536,1659,-13660
25314,-4102,522,-5082,22073,1693,-14088
25324,-4566,536,-5432,20673,2824,-14099
25334,-4964,216,-5718,18766,4373,-14547
25344,-4814,-402,-6066,16729,6210,-15176
25354,-5038,-894,-6128,14475,8290,-15613
25364,-4838,-1348,-6406,12107,9848,-16135
25374,-5428,-1630,-6234,10035,10844,-16553
25384,-4884,-1386,-6324,8549,12065,-16792
25394,-5028,-2300,-6356,7412,11832,-17075
25404,-5222,-3062,-6716,6954,11780,-17512
25414,-5460,-3266,-6486,6401,11199,-18139
25424,-5352,-3606,-6794,5996,11081,-18948
25434,-5460,-4082,-7098,5322,10953,-20007
25444,-5408,-4222,-6764,4001,11961,-21234
25454,-4626,-4412,-7214,2009,12752,-22390
25464,-3718,-4700,-7406,-1636,14210,-23203
25474,-3718,-4700,-7406,-1636,14210,-23203
25484,-2998,-5310,-7644,-4662,14912,-22060
25494,-2572,-5296,-7752,-6157,14594,-21183
25504,-1798,-5506,-8006,-7264,14030,-20402
25515,-1660,-5716,-8192,-8000,12777,-19810
25525,-1576,-5880,-8248,-8596,11513,-19232
25535,-1534,-5822,-8570,-9359,10490,-18451
25545,-1626,-5610,-8400,-10370,10126,-17447
25555,-1584,-6160,-8366,-11550,10734,-16549
25565,-506,-5872,-8736,-13582,9914,-15530
25575,-792,-5698,-8890,-15366,8345,-14463
25585,-388,-5550,-8992,-17759,8266,-13106
25595,380,-5120,-9066,-20462,8277,-11750
25605,142,-4750,-9026,-22791,7365,-10341
25615,636,-4656,-9150,-24133,4740,-8982
25625,-250,-4554,-8726,-24305,533,-8135
25635,-690,-4514,-8446,-24253,-4584,-7614
25645,-1926,-4052,-8272,-24458,-10098,-6837
25655,-3028,-3442,-7946,-25269,-13373,-5651
25665,-3076,-3088,-8036,-26976,-14906,-4022
25675,-4302,-2298,-7634,-28837,-15618,-1726
25686,-5234,-1466,-7608,-30520,-15359,589
25696,-6122,-602,-7354,-31563,-15373,2340
25706,-6212,-186,-6906,-30749,-13895,3499
25716,-5318,566,-6552,-30055,-12041,4573
25726,-5272,1442,-6214,-28881,-11548,5821
25736,-5776,2114,-5148,-27232,-12421,6963
25746,-5950,2560,-6374,-25151,-14318,7667
25756,-6820,3012,-4064,-23555,-16020,8515
25766,-6134,3220,-3760,-21946,-15738,9171
25776,-5924,4002,-3586,-20706,-15113,10042
25786,-6402,4484,-3160,-19649,-14176,10861
25796,-5558,4642,-2368,-18840,-12724,11510
25806,-4432,4956,-1464,-18365,-11238,12210
25816,-4952,5702,-2032,-17006,-9300,13189
25826,-4412,6006,-1044,-15496,-7898,14222
25836,-4180,6270,-938,-13544,-6816,15102
25846,-3238,7130,-810,-11478,-5595,15751
25856,-2654,7208,-304,-9014,-4414,15795
25866,-2312,7384,-16,-6399,-3003,15648
25876,-2460,7324,-128,-3573,-3148,15234
25886,-1402,7560,630,1944,-3947,13985
25896,-1878,7860,602,4799,-3601,12863
25906,-1724,7872,704,7738,-3531,11062
25916,-976,7654,756,10446,-3414,8416
25926,-394,6964,274,13091,-3349,5730
25936,-566,5262,-518,15387,-3972,3189
25946,-1722,3818,-720,16436,-4929,1500
25956,-1298,4456,-1586,16511,-5393,899
25966,-1956,5112,-1696,14785,-5352,691
25976,-1894,6402,-2256,13562,-3743,279
25986,-670,6862,-2768,13406,-426,-348
25996,-66,6976,-3328,15271,1976,-935
26006,-598,6092,-3342,18029,2179,-1330
26016,-362,5864,-3574,20496,713,-1868
26027,-1542,3904,-3832,22159,-607,-2299
26037,-1542,2766,-4034,22412,-575,-2968
26047,-1408,2454,-4230,20727,1989,-2934
26057,-174,2974,-4830,17770,5914,-2580
26067,1262,4156,-5280,15050,8803,-2866
26077,1474,4622,-5926,14258,9043,-4278
26087,730,4302,-6300,15647,6592,-6378
26097,30,3348,-6466,18095,3017,-8779
26107,-1362,2592,-6954,20399,369,-10934
26117,-2258,1244,-7168,21831,-199,-12099
26127,-2626,720,-7386,21310,987,-12298
26137,-1872,214,-7266,18766,3760,-12376
26147,-1618,28,-7568,15978,6939,-12246
26157,-1128,58,-7826,14212,8852,-12113
26167,-1322,-796,-8082,13716,8313,-12472
26177,-1758,-1138,-8204,14324,6067,-12989
26187,-2206,-1492,-8408,15647,3249,-13644
26198,-2762,-2624,-8592,16768,930,-14512
26208,-3388,-3316,-8576,16895,83,-15366
26218,-4152,-3650,-8558,16092,248,-15994
26228,-4154,-4314,-8742,14039,768,-16276
26238,-4264,-4746,-8594,11171,2264,-16056
26248,-4204,-4658,-8072,8159,4018,-15091
26258,-4212,-5272,-8528,5202,5845,-13619
26268,-4320,-5412,-8696,2223,6135,-12141
26278,-4536,-5526,-8592,-2494,5970,-10561
26288,-4536,-5526,-8592,-2494,5970,-10561
26298,-4300,-5468,-8574,-4323,6238,-10492
26308,-4894,-5274,-8210,-6844,7370,-11987
26318,-4936,-4972,-8046,-8217,8203,-12797
26328,-4800,-4574,-7910,-10285,9664,-13358
26338,-4186,-4086,-7788,-12654,12065,-13768
26348,-3806,-3868,-7892,-15428,14858,-13958
26358,-3728,-3720,-7700,-18516,16763,-14324
26368,-3392,-3378,-7570,-21291,17785,-14551
26378,-2194,-2810,-7760,-23465,18616,-14658
26388,-1788,-2102,-7976,-25418,19074,-14732
26398,38,-1482,-8096,-26931,19232,-14263
26408,314,-1282,-8014,-27344,18300,-13283
26418,1910,-694,-8684,-26917,16825,-11541
26428,2604,-530,-9008,-25923,13886,-9187
26438,2844,-630,-8950,-25407,9116,-6856
26448,2620,-260,-9190,-25146,2296,-5074
26458,1276,310,-8982,-24786,-5933,-3614
26468,-260,1000,-8456,-24081,-13617,-2284
26478,-2158,1884,-8162,-22904,-19018,-1039
26488,-3384,2052,-7626,-21409,-21614,50
26498,-3832,2050,-7152,-19629,-22005,1138
26508,-3882,2420,-6310,-17650,-21004,2304
26518,-3610,2974,-5842,-17102,-20578,3723
26528,-4808,3448,-5700,-16425,-20608,5307
26539,-6276,4190,-5204,-15617,-22152,6651
