# label=extension
# trial=7
# subject=handback_single
# captured_at=20260412_030803
# sensor_count=1
ts_ms,ax,ay,az,gx,gy,gz
31822,-454,-1084,-7852,-276,-176,-14
31832,-542,-1112,-7808,-249,-325,25
31842,-532,-1172,-7850,-244,-447,43
31852,-644,-1210,-7808,-250,-514,43
31862,-626,-1238,-7832,-286,-493,10
31872,-656,-1210,-7798,-318,-421,-39
31882,-634,-1176,-7880,-336,-302,-97
31892,-660,-1202,-7870,-338,-178,-175
31902,-610,-1174,-7890,-314,-81,-243
31912,-544,-1162,-7808,-276,-42,-299
31922,-526,-1140,-7886,-215,-53,-333
31932,-520,-1154,-7806,-132,-95,-341
31942,-532,-1086,-7826,-25,-150,-295
31952,-504,-1176,-7806,78,-229,-205
31962,-560,-1220,-7794,141,-309,-105
31972,-574,-1234,-7828,143,-407,-55
31982,-636,-1270,-7870,93,-462,-63
31992,-632,-1274,-7866,43,-455,-113
32002,-656,-1260,-7886,-1,-363,-162
32012,-636,-1304,-7922,-46,-234,-203
32022,-566,-1282,-7934,-86,-104,-217
32032,-556,-1246,-7882,-102,-7,-184
32043,-444,-1252,-7926,-100,22,-122
32053,-462,-1270,-7884,-78,-177,17
32063,-498,-1276,-7926,-75,-353,64
32073,-576,-1336,-7912,-101,-499,90
32083,-640,-1402,-7930,-167,-581,84
32093,-664,-1316,-7944,-273,-544,51
32103,-670,-1348,-7906,-381,-382,10
32113,-658,-1322,-7914,-484,-168,-37
32123,-592,-1308,-7894,-573,45,-72
32133,-514,-1278,-7888,-602,171,-80
32143,-426,-1184,-7870,-581,162,-57
32153,-448,-1224,-7802,-528,28,-36
32163,-514,-1278,-7824,-465,-173,-9
32173,-512,-1264,-7844,-419,-342,27
32183,-596,-1286,-7794,-409,-439,70
32193,-630,-1286,-7806,-436,-451,84
32203,-624,-1278,-7850,-449,-381,90
32214,-662,-1294,-7878,-429,-282,75
32224,-660,-1344,-7932,-412,-229,25
32234,-632,-1254,-7882,-395,-190,-30
32244,-618,-1284,-7862,-384,-155,-60
32254,-606,-1268,-7924,-398,-127,-63
32264,-584,-1306,-7808,-447,-121,-33
32274,-610,-1294,-7842,-506,-130,6
32284,-596,-1264,-7830,-551,-164,38
32294,-604,-1254,-7888,-589,-200,55
32304,-644,-1318,-7912,-609,-217,74
32314,-632,-1268,-7890,-607,-202,80
32324,-634,-1242,-7952,-592,-182,75
32334,-598,-1252,-7908,-586,-138,76
32344,-602,-1238,-7916,-604,-119,69
32354,-600,-1220,-7846,-627,-138,62
32364,-556,-1210,-7884,-645,-165,59
32374,-546,-1222,-7894,-633,-201,60
32384,-586,-1210,-7886,-601,-237,50
32394,-582,-1162,-7856,-562,-252,53
32404,-550,-1170,-7862,-529,-238,69
32414,-566,-1180,-7840,-522,-229,80
32424,-570,-1192,-7848,-510,-212,88
32434,-570,-1192,-7890,-488,-195,82
32444,-588,-1194,-7840,-468,-205,60
32454,-554,-1170,-7846,-453,-213,32
32464,-600,-1194,-7898,-410,-244,-16
32474,-600,-1194,-7898,-410,-244,-16
32484,-556,-1158,-7830,-415,-227,-46
32494,-550,-1176,-7892,-371,-155,-39
32504,-554,-1180,-7950,-373,-158,-5
32514,-582,-1214,-7888,-392,-201,17
32524,-604,-1228,-7908,-390,-276,29
32534,-658,-1206,-7856,-370,-331,35
32544,-660,-1164,-7908,-361,-342,30
32555,-668,-1166,-7886,-360,-310,28
32565,-642,-1160,-7898,-360,-263,22
32575,-662,-1164,-7864,-374,-209,7
32585,-660,-1180,-7860,-411,-160,-15
32595,-596,-1190,-7854,-436,-131,-34
32605,-606,-1216,-7840,-454,-118,-25
32615,-592,-1206,-7860,-482,-129,-8
32625,-580,-1244,-7916,-497,-142,5
32635,-566,-1190,-7868,-471,-174,19
32645,-576,-1174,-7892,-410,-217,23
32655,-598,-1194,-7874,-347,-263,28
32665,-630,-1192,-7880,-310,-326,29
32675,-656,-1164,-7880,-285,-366,44
32685,-642,-1168,-7912,-304,-389,49
32695,-668,-1174,-7838,-354,-366,40
32705,-618,-1130,-7808,-424,-297,20
32715,-654,-1152,-7840,-477,-207,2
32726,-634,-1084,-7884,-497,-144,-12
32736,-606,-1096,-7904,-492,-92,-14
32746,-586,-1108,-7936,-468,-89,-6
32756,-578,-1138,-7918,-423,-138,-3
32766,-576,-1152,-7878,-376,-212,4
32776,-578,-1176,-7900,-340,-282,15
32786,-584,-1136,-7918,-308,-327,25
32796,-534,-1120,-7894,-314,-364,49
32806,-576,-1122,-7814,-359,-404,66
32816,-612,-1164,-7814,-386,-447,87
32826,-674,-1134,-7872,-406,-465,69
32836,-722,-1168,-7912,-427,-433,32
32846,-670,-1190,-7918,-442,-343,1
32856,-684,-1202,-7838,-460,-210,-34
32866,-694,-1178,-7912,-480,-77,-71
32876,-626,-1152,-7878,-471,17,-77
32886,-592,-1126,-7968,-431,-31,-45
32896,-592,-1126,-7968,-431,-31,-45
32906,-676,-1156,-7948,-380,-294,22
32916,-698,-1216,-7972,-383,-397,35
32926,-746,-1200,-7938,-413,-431,37
32936,-704,-1168,-7970,-457,-397,46
32946,-744,-1172,-7930,-533,-310,66
32956,-726,-1222,-7944,-621,-200,87
32966,-738,-1162,-7890,-722,-115,96
32976,-716,-1124,-7894,-801,-31,84
32986,-634,-1080,-7898,-846,9,79
32996,-606,-1086,-7842,-849,8,62
33006,-618,-1086,-7858,-816,-25,65
33016,-594,-1058,-7898,-767,-92,98
33026,-576,-1052,-7920,-700,-194,120
33036,-616,-1070,-7894,-633,-298,147
33046,-602,-1070,-7900,-573,-354,152
33056,-624,-1096,-7872,-508,-376,139
33067,-690,-1064,-7890,-444,-389,112
33077,-714,-1028,-7862,-399,-343,99
33087,-730,-1012,-7902,-406,-279,66
33097,-712,-974,-7840,-463,-212,24
33107,-650,-990,-7888,-521,-119,10
33117,-592,-1000,-7840,-569,-38,16
33127,-642,-1004,-7890,-579,-8,19
33137,-660,-1004,-7874,-548,-51,13
33147,-632,-1000,-7872,-507,-119,10
33157,-636,-996,-7938,-462,-181,21
33167,-656,-1046,-7946,-430,-210,34
33177,-672,-1066,-7898,-414,-206,55
33187,-682,-1020,-7894,-434,-182,76
33197,-696,-1052,-7974,-466,-171,89
33207,-676,-1012,-7940,-513,-189,83
33217,-678,-1060,-7960,-545,-212,82
33227,-698,-1016,-7914,-563,-240,67
33238,-668,-1012,-7904,-581,-245,43
33248,-680,-1034,-7894,-594,-219,39
33258,-628,-1010,-7922,-598,-170,46
33268,-656,-1014,-7896,-583,-129,76
33278,-650,-978,-7860,-549,-146,132
33288,-650,-978,-7860,-549,-146,132
33298,-676,-994,-7892,-567,-206,155
33308,-732,-966,-7892,-650,-288,155
33318,-692,-930,-7934,-724,-257,164
33328,-656,-906,-7936,-805,-207,184
33338,-706,-912,-7922,-892,-161,201
33348,-710,-872,-7930,-947,-133,212
33358,-646,-858,-7926,-964,-135,216
33368,-614,-874,-7976,-959,-169,230
33378,-642,-906,-7896,-946,-218,240
33388,-660,-926,-7886,-926,-267,239
33398,-694,-894,-7936,-915,-298,227
33408,-686,-854,-7962,-909,-300,199
33418,-700,-856,-7894,-931,-287,184
33428,-744,-808,-7922,-1001,-227,188
33438,-702,-776,-7906,-1052,-183,202
33448,-708,-790,-7866,-1100,-151,211
33458,-662,-774,-7942,-1140,-155,211
33468,-684,-734,-7946,-1158,-180,232
33478,-686,-740,-7874,-1114,-222,237
33488,-694,-720,-7938,-1039,-269,217
33498,-734,-742,-7950,-933,-290,197
33508,-690,-680,-7966,-838,-292,182
33518,-720,-718,-7934,-764,-267,166
33528,-704,-688,-7992,-725,-241,146
33538,-682,-666,-7996,-739,-188,129
33548,-678,-690,-7982,-778,-121,123
33558,-620,-692,-7970,-821,-88,127
33568,-610,-668,-8020,-853,-88,126
33579,-594,-660,-7974,-849,-141,116
33589,-584,-604,-8072,-834,-194,113
33599,-614,-606,-7940,-817,-218,86
33609,-608,-606,-8000,-804,-233,59
33619,-656,-578,-7884,-806,-232,44
33629,-694,-554,-7932,-810,-210,16
33639,-670,-568,-7902,-803,-172,-21
33649,-680,-486,-7848,-781,-102,-36
33659,-658,-510,-7882,-756,-49,-30
33669,-630,-484,-7964,-724,-40,-2
33679,-660,-494,-7904,-679,-96,15
33689,-672,-514,-7938,-625,-167,36
33699,-744,-492,-7902,-577,-277,31
33709,-730,-462,-7894,-532,-353,30
33719,-820,-524,-7932,-514,-380,31
33729,-858,-506,-7904,-525,-344,48
33739,-852,-516,-7948,-559,-262,61
33750,-890,-450,-7910,-652,-92,61
33760,-806,-514,-7994,-728,-133,60
33770,-748,-494,-8032,-704,-91,65
33780,-702,-516,-8028,-723,6,102
33790,-652,-494,-8070,-742,-62,145
33800,-644,-532,-8008,-758,-148,184
33810,-630,-512,-8016,-712,-267,201
33820,-632,-498,-7980,-650,-380,190
33830,-688,-468,-7926,-601,-430,154
33840,-658,-432,-7942,-574,-418,114
33850,-642,-414,-7912,-571,-349,87
33860,-668,-418,-7906,-571,-231,63
33870,-654,-336,-7898,-575,-121,30
33880,-612,-392,-7908,-564,-60,-3
33890,-580,-330,-7888,-540,-47,-22
33900,-546,-422,-7958,-524,-71,-17
33910,-602,-404,-7920,-500,-131,-14
33920,-634,-412,-8008,-462,-198,-14
33930,-666,-422,-8048,-429,-229,-24
33940,-708,-400,-8008,-423,-248,-33
33950,-740,-424,-8046,-457,-255,-49
33960,-752,-392,-7986,-513,-223,-53
33970,-798,-410,-8012,-570,-173,-55
33980,-770,-394,-7974,-605,-110,-59
33990,-754,-370,-8020,-615,-79,-48
34000,-700,-400,-7984,-607,-94,-22
34010,-734,-376,-7916,-582,-156,0
34020,-772,-388,-7916,-545,-238,14
34030,-748,-394,-7882,-520,-280,34
34040,-756,-326,-7844,-518,-284,47
34050,-794,-372,-7858,-520,-265,41
34060,-708,-322,-7868,-521,-202,26
34070,-712,-322,-7896,-509,-119,0
34080,-692,-294,-7850,-454,-77,-24
34091,-676,-302,-7872,-369,-77,-48
34101,-668,-292,-7916,-279,-96,-66
34111,-696,-318,-7926,-205,-136,-81
34121,-692,-292,-7934,-170,-154,-60
34131,-694,-394,-7980,-195,-166,-26
34141,-674,-400,-7984,-258,-196,6
34151,-744,-440,-8020,-321,-228,15
34161,-702,-408,-8008,-421,-183,-3
34171,-642,-422,-8002,-447,-129,-15
34181,-660,-382,-7996,-462,-87,-8
34191,-626,-362,-8012,-479,-95,8
34201,-622,-294,-7952,-487,-170,9
34211,-664,-316,-7924,-482,-274,5
34221,-660,-304,-7916,-468,-343,-19
34231,-662,-302,-7896,-464,-357,-46
34241,-688,-312,-7918,-453,-305,-59
34251,-722,-350,-7900,-467,-212,-75
34262,-644,-278,-7934,-476,-102,-85
34272,-666,-288,-7908,-481,-22,-99
34282,-634,-318,-7980,-459,20,-111
34292,-630,-310,-7934,-415,2,-124
34302,-660,-316,-7984,-361,-68,-131
34312,-686,-326,-7942,-310,-178,-131
34322,-724,-338,-7952,-266,-288,-125
34332,-740,-350,-7920,-236,-345,-126
34342,-816,-358,-7984,-213,-317,-133
34352,-764,-374,-7976,-208,-233,-139
34362,-764,-378,-7944,-214,-121,-157
34372,-716,-390,-7958,-208,-41,-169
34382,-702,-354,-7896,-202,-15,-180
34392,-668,-358,-7910,-189,-24,-186
34402,-638,-342,-7912,-179,-74,-184
34412,-662,-342,-7900,-134,-137,-175
34422,-716,-364,-7884,-86,-204,-154
34432,-668,-346,-7922,-22,-258,-139
34442,-718,-384,-7902,42,-292,-138
34452,-668,-420,-7932,97,-309,-159
34462,-694,-430,-7904,128,-283,-220
34472,-712,-426,-7970,144,-227,-281
34482,-658,-422,-7996,165,-126,-319
34492,-672,-468,-7948,161,-27,-321
34502,-644,-466,-7972,132,30,-302
34512,-632,-460,-7948,72,41,-273
34522,-606,-474,-7934,39,19,-233
34532,-590,-492,-8026,14,-68,-187
34542,-626,-492,-8030,-4,-181,-157
34552,-618,-542,-8018,-37,-256,-138
34562,-694,-552,-8044,-9,-324,-154
34572,-702,-570,-8040,11,-307,-184
34582,-688,-598,-8072,16,-266,-210
34592,-702,-566,-7974,-6,-211,-226
34603,-640,-562,-7962,-108,-26,-232
34613,-608,-540,-7952,-164,20,-211
34623,-618,-534,-7948,-192,0,-184
34633,-636,-558,-7994,-199,-87,-163
34643,-672,-542,-8020,-183,-182,-153
34653,-658,-546,-7966,-162,-254,-155
34663,-732,-562,-7924,-152,-274,-164
34673,-696,-578,-7978,-174,-232,-151
34683,-708,-574,-7940,-217,-143,-142
34693,-662,-574,-7952,-250,-94,-111
34703,-690,-582,-7972,-271,-79,-91
34713,-656,-608,-7980,-290,-122,-68
34723,-642,-608,-8014,-313,-185,-56
34733,-682,-612,-7974,-334,-246,-48
34743,-670,-608,-7942,-347,-268,-58
34753,-678,-604,-7980,-358,-235,-68
34763,-640,-598,-7950,-351,-196,-63
34774,-624,-610,-7944,-322,-174,-42
34784,-642,-596,-7912,-277,-198,-33
34794,-686,-576,-7904,-229,-262,-24
34804,-658,-582,-7926,-207,-324,-34
34814,-678,-562,-7946,-200,-356,-41
34824,-690,-610,-7986,-241,-340,-48
34834,-674,-570,-7886,-309,-264,-65
34844,-648,-574,-7932,-362,-159,-81
34854,-676,-596,-7924,-377,-76,-98
34864,-630,-638,-7944,-358,-40,-105
34874,-584,-632,-7940,-326,-72,-95
34884,-540,-632,-7916,-288,-154,-78
34894,-634,-620,-8006,-248,-247,-66
34904,-664,-600,-7964,-223,-329,-54
34914,-686,-644,-7910,-191,-374,-60
34924,-724,-634,-7948,-193,-381,-58
34934,-754,-624,-7964,-231,-355,-65
34944,-734,-632,-7948,-280,-292,-67
34954,-722,-668,-7974,-358,-205,-75
34964,-702,-634,-8016,-424,-135,-86
34974,-642,-636,-7930,-463,-76,-101
34984,-638,-620,-7934,-458,-64,-96
34994,-578,-618,-7932,-405,-114,-85
35004,-634,-632,-7898,-316,-197,-57
35014,-654,-648,-7856,-211,-306,-34
35024,-802,-632,-7872,-93,-439,-62
35034,-802,-632,-7872,-93,-439,-62
35044,-782,-644,-7916,-182,-287,-85
35054,-772,-644,-7934,-276,-151,-68
35064,-720,-630,-7888,-342,-44,-56
35074,-626,-648,-7960,-374,10,-31
35084,-634,-658,-7930,-352,-44,-6
35094,-636,-644,-7978,-285,-182,11
35104,-700,-682,-7976,-219,-334,14
35115,-758,-670,-7954,-163,-412,-3
35125,-732,-666,-7912,-153,-380,-30
35135,-750,-670,-7954,-172,-253,-74
35145,-710,-664,-7938,-207,-87,-102
35155,-664,-648,-7936,-240,63,-108
35165,-614,-640,-7932,-234,121,-129
35175,-610,-672,-7958,-167,68,-117
35185,-592,-708,-8002,-70,-60,-53
35195,-638,-784,-8022,-20,-251,0
35205,-690,-790,-8050,-23,-398,39
35215,-726,-772,-8024,-83,-444,42
35225,-720,-804,-8070,-188,-369,26
35235,-708,-800,-8102,-314,-207,-8
35245,-740,-844,-8140,-458,-42,-41
35255,-656,-830,-8178,-613,104,-49
35265,-614,-802,-8186,-763,195,-55
35275,-586,-798,-8182,-885,258,-49
35286,-570,-818,-8248,-1023,274,-21
35296,-664,-898,-8402,-1331,226,133
35306,-816,-946,-8574,-2094,175,455
35316,-936,-1056,-8820,-3556,113,1018
35326,-1026,-1082,-9014,-6049,89,1890
35336,-988,-1344,-9172,-9542,-88,2940
35346,-1040,-1398,-9190,-14484,-726,4050
35356,-1022,-1456,-9110,-20969,-1832,5118
35366,-1168,-1682,-9180,-28197,-3082,5769
35376,-1828,-1274,-9158,32460,-3803,6445
35386,-2514,-800,-10026,32460,-3581,7476
35396,-1912,-296,-10240,32460,-2456,8874
35406,-940,894,-9072,32460,-1322,10383
35416,374,2882,-7640,32460,-740,11228
35426,-142,4508,-5832,32460,-1292,11383
35436,1092,9024,-1282,32460,-2134,10391
35446,1400,9866,-256,32460,-2769,9257
35456,2062,9474,426,-32437,-3347,7176
35548,792,6278,2396,-2861,1805,-835
35558,1064,6126,1002,-1565,3114,-598
35568,242,6744,1674,-1512,2056,-262
35578,268,7290,1534,-1140,3184,188
35588,964,7976,1650,-869,4537,735
35598,482,8222,1624,239,4236,862
35608,770,8340,1240,1322,3656,772
35618,546,8136,1020,1893,1766,437
35628,730,7918,650,2075,205,17
35638,476,7818,476,1778,-1101,-411
35648,638,7932,434,1277,-1714,-744
35658,408,8098,134,1050,-1984,-1003
35668,454,8346,226,884,-1964,-981
35678,286,8534,304,1052,-2161,-778
35688,354,8656,210,1466,-2364,-525
35698,290,9042,638,2120,-2260,-341
35708,350,9030,470,3053,-1522,-314
35718,466,9362,658,3969,-543,-394
35728,554,9528,802,5411,912,-733
35738,648,9452,642,7187,2309,-1219
35748,770,9348,436,9205,3443,-1805
35758,830,9178,68,11317,4033,-2524
35768,944,8658,-388,13266,4021,-3254
35778,920,8202,-836,14813,3644,-3771
35788,702,7922,-1162,15907,3412,-3965
35798,526,7584,-1428,17165,3426,-4005
35808,338,7216,-1804,18150,3709,-4021
35818,182,6938,-2146,18884,4169,-4238
35828,262,6424,-2836,20296,4865,-5428
35838,486,6140,-3384,21028,4919,-6164
35848,486,6140,-3384,21028,4919,-6164
35858,580,5370,-4210,22706,4995,-7489
35868,598,4586,-4786,23504,4865,-7777
35878,568,4122,-5362,23765,4159,-7589
35888,192,3646,-5646,23378,3030,-6886
35898,-228,3162,-6096,22487,1629,-5816
35908,-868,2954,-6394,21397,742,-4758
35918,-964,2974,-6722,20336,820,-4009
35928,-1062,2710,-6996,19868,1445,-3644
35938,-1064,2604,-7394,19396,2262,-3369
35948,-896,2606,-7574,18727,2827,-3192
35958,-560,1688,-7786,18379,3228,-2891
35968,-570,2066,-8068,17696,3062,-2322
35978,-874,1792,-8062,16347,2660,-1702
35988,-636,1124,-8344,15012,2079,-1169
35998,-530,626,-8514,13878,1472,-323
36008,-294,202,-8760,12422,978,225
36018,-834,-128,-9082,10562,134,-15
36028,-1008,-72,-9104,8458,-1431,-494
36038,-1376,-114,-9000,6424,-1945,-824
36048,-1170,40,-9164,4778,-1704,-1079
36058,-1236,-266,-9312,3536,-1155,-1125
36068,-976,-426,-9352,2341,-181,-889
36078,-1026,-222,-9234,1217,127,-451
36088,-780,-182,-9100,322,556,-55
36098,-498,-166,-8992,-311,585,207
36108,-506,-120,-8776,-757,341,404
36118,-274,-70,-8584,-1140,221,530
36128,-286,386,-8406,-1504,-83,520
36139,-226,126,-8206,-1792,-335,425
36149,-290,210,-8054,-1857,-646,382
36159,-324,278,-7972,-1829,-836,340
36169,-372,410,-7856,-1664,-889,322
36179,-444,450,-7864,-1414,-806,294
36189,-436,466,-7786,-1077,-646,248
36199,-366,498,-7736,-717,-475,205
36209,-328,464,-7742,-433,-304,138
36219,-260,426,-7706,-229,-236,67
36229,-226,470,-7718,-16,-246,5
36239,-326,460,-7768,87,-265,-37
36249,-392,448,-7788,24,-417,-72
36259,-474,470,-7870,-42,-573,-99
36269,-598,432,-8000,-226,-610,-101
36279,-724,450,-8026,-321,-549,-142
36289,-726,402,-8034,-345,-385,-203
36299,-618,368,-7996,-315,128,-203
36310,-528,344,-8086,-248,219,-122
36320,-432,296,-7998,-245,178,-15
36330,-486,310,-8024,-273,-22,49
36340,-510,316,-8116,-329,-344,44
36350,-564,364,-8072,-406,-581,50
36360,-592,374,-8104,-450,-674,71
36370,-696,320,-8084,-482,-641,76
36380,-686,280,-8078,-532,-502,62
36390,-568,298,-8028,-557,-294,73
36400,-524,334,-8046,-538,-97,79
36410,-424,368,-7964,-514,26,109
36420,-352,350,-8054,-484,41,115
36430,-308,412,-8024,-445,-101,83
36440,-370,404,-7980,-385,-310,22
36450,-416,382,-7950,-337,-479,-26
36460,-406,440,-7982,-316,-583,-58
36470,-510,402,-7944,-329,-599,-70
36480,-526,432,-7966,-396,-522,-50
36490,-488,446,-7936,-449,-396,-24
36500,-598,408,-7932,-458,-277,-20
36510,-542,408,-7926,-456,-206,-60
36520,-538,420,-7940,-435,-162,-97
36530,-524,408,-8010,-375,-169,-126
36540,-584,374,-7952,-318,-199,-157
36550,-642,378,-7982,-291,-223,-165
36560,-594,374,-7998,-310,-237,-124
36570,-630,376,-8032,-362,-246,-65
36580,-660,382,-8044,-448,-260,2
36590,-664,350,-8050,-546,-272,64
36600,-664,364,-8042,-616,-274,71
36610,-652,350,-8032,-632,-254,61
36620,-656,382,-8006,-620,-225,26
36630,-638,380,-7992,-620,-178,8
36640,-576,458,-7956,-614,-118,40
36651,-590,446,-7960,-592,-86,79
36661,-548,450,-7982,-551,-93,76
36671,-528,476,-8008,-509,-133,91
36681,-558,488,-7978,-510,-210,93
36691,-542,456,-7956,-648,-271,57
36701,-542,456,-7956,-648,-271,57
36711,-518,510,-7950,-786,-75,54
36721,-448,538,-7932,-760,14,78
36731,-404,488,-7932,-694,-6,97
36741,-464,534,-7974,-566,-148,66
36751,-502,524,-7920,-416,-370,1
36761,-478,490,-7900,-251,-542,-55
36771,-654,450,-8004,-125,-630,-92
36781,-678,434,-7956,-107,-604,-80
36791,-698,384,-7976,-161,-447,-40
36801,-714,448,-8002,-251,-291,2
36811,-636,416,-7998,-405,-145,14
36822,-610,448,-7984,-551,-59,20
36832,-520,506,-7998,-633,-50,35
36842,-508,476,-8054,-625,-99,58
36852,-570,494,-8048,-555,-210,45
36862,-540,500,-7998,-451,-376,30
36872,-568,508,-8020,-361,-532,73
36882,-718,444,-7996,-319,-652,130
36892,-744,488,-7948,-363,-685,170
36902,-758,482,-7968,-461,-569,172
36912,-694,476,-7944,-574,-392,165
36922,-706,524,-7960,-670,-181,160
36932,-652,556,-7918,-733,-31,143
36942,-582,524,-7914,-750,6,106
36952,-536,552,-7954,-694,-30,63
36962,-502,546,-7974,-585,-136,29
36972,-526,566,-7944,-455,-244,20
36982,-558,546,-7958,-320,-334,30
36992,-580,596,-7938,-212,-417,24
37002,-620,524,-7864,-126,-434,13
37012,-580,554,-7914,-69,-409,-1
37022,-632,504,-7938,-42,-346,-20
37032,-654,500,-7906,-62,-276,-51
37042,-568,448,-7930,-110,-185,-81
37052,-576,508,-7932,-158,-108,-121
37062,-552,522,-7972,-181,-66,-154
