# label=radial_deviation
# trial=19
# subject=handback_single
# captured_at=20260412_031305
# sensor_count=1
ts_ms,ax,ay,az,gx,gy,gz
94803,-252,1166,-8008,707,138,171
94813,-252,1166,-8008,707,138,171
94823,-116,1214,-7860,814,292,230
94833,6,1220,-7854,704,551,377
94843,62,1232,-7846,556,621,402
94853,74,1276,-7882,472,597,415
94863,162,1270,-7944,417,537,384
94873,210,1336,-8014,415,516,285
94883,148,1386,-7928,466,401,120
94893,60,1342,-8018,493,190,4
94903,-6,1362,-7958,545,15,-50
94913,-56,1314,-7978,626,-138,-67
94923,-90,1328,-7932,659,-151,-19
94934,-26,1354,-7902,672,-67,55
94944,4,1260,-7838,602,39,102
94954,18,1276,-7866,563,134,145
94964,22,1338,-7966,522,206,181
94974,38,1240,-7934,439,187,168
94984,44,1302,-7944,424,84,94
94994,-38,1314,-8000,495,-78,-29
95004,-114,1332,-8016,613,-249,-135
95014,-234,1312,-7984,762,-365,-196
95024,-170,1312,-8000,949,-372,-194
95034,-266,1270,-7968,1052,-296,-152
95044,-212,1300,-7946,1106,-229,-101
95054,-232,1268,-7892,1108,-135,-47
95064,-214,1244,-7854,1053,-10,-3
95074,-212,1250,-7824,972,78,14
95084,-258,1286,-7896,933,110,42
95094,-272,1258,-7866,905,107,63
95104,-334,1250,-7850,892,88,79
95114,-332,1280,-7904,891,97,107
95124,-322,1272,-7868,831,172,100
95134,-298,1352,-7998,809,247,113
95144,-258,1252,-7928,827,360,141
95154,-220,1258,-7908,846,450,184
95164,-148,1352,-7948,850,474,194
95174,-166,1242,-7938,773,449,122
95184,-202,1286,-7940,730,382,93
95194,-224,1280,-7876,721,301,109
95204,-256,1224,-7872,752,243,136
95214,-166,1320,-7914,811,251,168
95224,-146,1248,-8034,830,332,159
95234,-110,1318,-8052,784,404,83
95244,-96,1320,-8084,794,463,-6
95254,-78,1298,-8026,863,462,-32
95264,-36,1282,-7928,968,394,-44
95275,-92,1280,-7786,1058,163,23
95285,-150,1244,-7838,956,86,80
95295,-146,1284,-7900,827,82,84
95305,-268,1262,-7918,730,160,102
95315,-262,1280,-7954,681,278,158
95325,-276,1294,-7914,669,377,201
95335,-226,1254,-8008,663,430,202
95345,-166,1276,-8010,674,439,181
95355,-122,1312,-8074,723,422,142
95365,-130,1344,-7982,800,377,87
95375,-130,1282,-7916,871,321,66
95385,-142,1306,-7840,951,267,78
95395,-170,1276,-7826,962,225,107
95405,-174,1252,-7806,894,201,106
95415,-238,1238,-7856,822,216,133
95425,-284,1232,-7858,758,296,169
95435,-230,1228,-7884,735,391,160
95446,-236,1294,-7962,734,467,135
95456,-210,1252,-7966,730,512,128
95466,-176,1290,-7978,737,515,121
95476,-138,1312,-7998,771,504,137
95486,-58,1328,-7970,823,495,133
95496,-10,1312,-7974,872,472,101
95506,16,1326,-7886,914,433,92
95516,-88,1276,-7938,928,375,85
95526,-64,1282,-7880,901,300,54
95536,-118,1242,-7874,897,238,63
95546,-152,1264,-7886,894,209,100
95556,-92,1238,-7898,876,226,140
95566,-150,1238,-7844,836,274,156
95576,-92,1252,-7914,785,330,188
95586,-72,1284,-8012,775,361,157
95596,-124,1268,-7922,814,339,123
95606,-68,1282,-7974,868,285,104
95616,-128,1236,-7944,897,211,69
95626,-200,1260,-7912,927,105,66
95636,-228,1268,-7896,922,53,78
95646,-268,1214,-7922,911,72,125
95656,-282,1220,-7834,890,144,162
95666,-266,1198,-7848,855,269,216
95676,-246,1206,-7856,797,386,270
95686,-210,1206,-7982,744,490,307
95696,-154,1290,-8038,800,584,261
95706,-154,1290,-8038,800,584,261
95716,-88,1292,-7950,980,467,188
95726,-12,1262,-7860,1042,406,200
95736,-56,1212,-7860,1025,350,178
95746,-66,1224,-7874,963,308,131
95756,-116,1188,-7846,867,309,128
95766,-114,1170,-7888,785,336,161
95776,-106,1222,-7880,746,385,171
95787,-66,1240,-7980,730,425,155
95797,-50,1260,-7980,737,430,134
95807,-40,1282,-8024,753,376,81
95817,-50,1306,-7964,791,299,65
95827,-96,1316,-7994,851,222,76
95837,-102,1270,-7892,877,181,82
95847,-90,1214,-7932,897,156,84
95857,-108,1198,-7868,890,159,83
95867,-130,1184,-7922,861,195,95
95877,-178,1196,-7940,826,227,96
95887,-140,1180,-7882,797,264,100
95897,-164,1204,-7956,795,295,112
95907,-178,1208,-7962,808,319,114
95917,-166,1218,-7968,820,322,111
95927,-142,1260,-7934,835,343,108
95937,-120,1250,-7940,847,352,103
95947,-116,1316,-7962,869,348,113
95958,-140,1294,-7972,877,344,145
95968,-110,1290,-7964,901,350,188
95978,-100,1234,-7932,902,365,208
95988,-104,1182,-7906,903,360,218
95998,-94,1228,-7982,920,367,222
96008,-86,1142,-7992,938,383,210
96018,-78,1154,-7898,943,385,181
96028,-54,1162,-7894,943,356,141
96038,-80,1204,-7926,943,324,115
96048,-92,1172,-7916,933,278,84
96058,-98,1212,-7964,918,219,67
96068,-98,1260,-7918,895,202,73
96078,-194,1190,-7902,850,199,72
96088,-170,1182,-7876,809,202,91
96098,-194,1170,-7840,778,237,129
96108,-196,1230,-7956,754,283,133
96118,-126,1192,-7956,783,386,157
96128,-126,1192,-7956,783,386,157
96138,-22,1208,-7916,825,428,120
96148,-72,1204,-7918,803,357,68
96158,-78,1196,-7858,788,271,64
96168,-76,1210,-7922,769,202,86
96178,-98,1210,-8040,752,197,106
96188,-108,1212,-7996,752,246,108
96198,-106,1264,-7978,796,319,118
96208,-86,1190,-7944,831,374,120
96218,-96,1212,-7906,847,348,95
96228,-104,1192,-7954,856,283,93
96238,-94,1202,-7906,861,212,95
96248,-98,1190,-7878,846,169,67
96258,-174,1178,-7910,830,160,61
96268,-176,1142,-7884,772,201,85
96278,-128,1180,-7950,713,251,119
96288,-164,1188,-8036,700,296,121
96299,-186,1190,-8012,720,317,104
96309,-158,1210,-7932,784,328,123
96319,-104,1210,-7950,853,325,131
96329,-88,1192,-7884,884,291,91
96339,-118,1198,-7950,885,245,57
96349,-142,1206,-7952,851,219,48
96359,-192,1176,-7918,829,245,65
96369,-148,1168,-7948,801,309,90
96379,-162,1204,-7870,779,362,115
96389,-156,1234,-7884,759,392,141
96399,-114,1222,-7884,736,416,167
96409,-106,1218,-7974,719,424,156
96419,-132,1206,-7984,727,407,166
96429,-82,1248,-7948,754,390,154
96439,-88,1244,-7966,798,366,117
96449,-92,1164,-7924,827,335,112
96459,-82,1198,-7860,839,298,118
96470,-90,1184,-7924,814,281,113
96480,-116,1148,-7936,768,263,108
96490,-102,1220,-7934,739,287,117
96500,-104,1206,-8032,743,319,122
96510,-180,1168,-7978,756,348,125
96520,-184,1230,-7922,793,333,122
96530,-150,1198,-7958,817,313,131
96540,-138,1230,-7928,822,282,111
96550,-112,1218,-7868,816,302,110
96560,-128,1218,-7936,807,346,117
96570,-58,1188,-7900,787,389,124
96580,-58,1138,-7922,766,392,119
96590,-54,1194,-7910,763,369,100
96600,-58,1164,-7966,758,309,88
96610,-124,1162,-7994,794,253,102
96620,-144,1198,-7914,831,219,86
96630,-160,1214,-7906,848,233,80
96640,-68,1238,-7868,846,257,94
96650,-112,1264,-7876,809,297,98
96660,-136,1216,-7918,752,341,106
96670,-166,1234,-7916,712,368,113
96680,-182,1224,-7966,705,385,121
96690,-108,1228,-7968,747,401,112
96700,-86,1228,-8010,799,394,104
96710,-94,1224,-7954,844,369,100
96720,-60,1190,-7846,868,349,101
96730,-40,1220,-7916,858,320,105
96740,-102,1228,-7856,833,291,112
96750,-78,1202,-7962,792,289,117
96760,-66,1212,-7922,755,312,120
96770,-74,1186,-8002,747,349,146
96780,-94,1230,-7964,739,373,128
96790,-134,1242,-8014,758,368,98
96800,-82,1238,-8010,804,345,91
96811,-66,1270,-7942,846,301,91
96821,-138,1240,-7882,866,254,87
96831,-124,1202,-7896,858,230,94
96841,-128,1214,-7890,830,242,110
96851,-122,1198,-7916,784,274,120
96861,-98,1176,-7958,755,313,122
96871,-106,1178,-7954,742,351,119
96881,-94,1178,-7998,748,373,121
96891,-100,1202,-7956,793,364,122
96901,-104,1192,-7948,817,335,109
96911,-86,1208,-7910,832,302,95
96921,-98,1224,-7928,823,277,103
96931,-92,1230,-7898,804,282,120
96941,-92,1194,-7888,761,304,134
96951,-86,1226,-8000,753,340,148
96961,-120,1184,-8060,758,352,140
96971,-72,1218,-7990,788,363,124
96982,-52,1192,-7916,867,285,96
96992,-86,1190,-7900,881,238,88
97002,-102,1184,-7842,854,222,105
97012,-70,1194,-7880,796,243,104
97022,-110,1204,-7924,750,280,87
97032,-100,1270,-7958,723,320,98
97042,-124,1202,-7948,733,361,103
97052,-102,1246,-7944,782,360,116
97062,-82,1216,-7904,846,342,117
97072,-114,1202,-7874,882,310,121
97082,-86,1190,-7882,886,269,118
97092,-70,1232,-7948,846,267,106
97102,-62,1218,-7922,778,283,102
97112,-130,1226,-7950,730,315,120
97122,-112,1216,-7934,730,356,127
97132,-36,1208,-7996,754,378,137
97142,-30,1194,-7964,799,374,128
97152,-72,1222,-7944,833,345,108
97162,-66,1264,-7938,845,300,94
97172,-46,1204,-7908,828,261,97
97182,-98,1226,-7908,802,250,99
97192,-48,1224,-7964,777,269,118
97202,-74,1196,-7946,767,287,125
97212,-136,1244,-7956,769,295,114
97222,-122,1254,-7920,795,301,107
97232,-102,1218,-7948,830,285,91
97242,-98,1214,-7976,861,275,97
97252,-54,1220,-7924,878,252,91
97262,-74,1206,-7902,869,253,97
97272,-88,1204,-7890,829,254,103
97282,-72,1204,-7886,779,266,104
97292,-92,1192,-7954,733,297,109
97302,-140,1236,-7906,725,337,110
97312,-118,1236,-7992,746,366,124
97323,-142,1226,-7972,786,363,128
97333,-52,1194,-7982,823,344,135
97343,-74,1176,-7944,833,317,115
97353,-44,1170,-7966,844,285,92
97363,-110,1186,-7928,849,256,78
97373,-104,1158,-7870,853,251,90
97383,-126,1158,-7914,863,266,102
97393,-120,1190,-7910,846,281,104
97403,-106,1200,-7880,766,340,127
97413,-106,1200,-7880,766,340,127
97423,-82,1266,-7952,734,351,122
97433,-58,1226,-8024,765,326,99
97443,-84,1220,-7968,811,296,94
97453,-90,1210,-7976,844,246,94
97463,-86,1168,-7882,855,215,105
97473,-80,1174,-7938,843,217,112
97483,-64,1180,-7956,814,250,110
97494,-104,1168,-7884,779,287,113
97504,-98,1190,-7934,767,334,128
97514,-84,1182,-7964,793,370,128
97524,-78,1218,-7902,815,378,121
97534,-56,1206,-7912,825,333,125
97544,-66,1234,-7892,810,291,118
97554,-62,1242,-7924,789,249,87
97564,-126,1234,-7926,782,240,68
97574,-76,1238,-7954,795,270,91
97584,-74,1222,-7930,815,313,108
97594,-98,1218,-7914,838,340,107
97604,-58,1168,-7906,861,329,121
97614,-56,1174,-7966,865,311,138
97624,-92,1204,-7876,826,273,137
97634,-84,1216,-7910,789,239,125
97644,-62,1196,-7940,749,236,107
97654,-128,1214,-7996,742,256,98
97664,-108,1222,-7980,775,299,108
97674,-52,1202,-7962,815,334,107
97684,-86,1210,-7904,832,323,93
97694,-118,1196,-7926,858,279,106
97704,-58,1194,-7912,853,248,130
97714,-10,1160,-7902,838,244,129
97724,-46,1184,-7930,822,235,113
97734,-110,1178,-7926,806,243,101
97744,-92,1176,-7926,819,250,92
97754,-134,1190,-7964,838,257,74
97764,-126,1168,-7944,845,221,57
97774,-124,1174,-7938,853,198,63
97784,-130,1224,-8016,847,187,62
97794,-124,1194,-7952,840,207,68
97804,-152,1168,-7982,857,260,73
97814,-116,1188,-7968,881,305,89
97824,-78,1198,-7942,900,337,103
97835,-94,1202,-7910,887,331,101
97845,-108,1240,-7918,881,256,100
97855,-68,1246,-7984,888,252,93
97865,-88,1262,-8062,924,250,90
97875,-80,1284,-8110,984,284,88
97885,-114,1348,-8064,1092,324,82
97895,-68,1382,-8004,1198,334,77
97905,-32,1394,-7984,1267,292,42
97915,-56,1304,-8010,1310,211,19
97925,-16,1224,-8070,1373,121,27
97935,14,1196,-8040,1464,68,48
97945,12,1208,-8024,1541,58,58
97955,4,1212,-8010,1566,56,53
97965,-74,1160,-7902,1543,37,43
97975,-60,1142,-7900,1503,-32,18
97985,-378,1102,-7836,1459,-166,-80
97995,-378,1070,-8010,1368,-291,-175
98006,-566,972,-8006,1381,-367,-201
98016,-700,944,-7952,1522,-264,-191
98026,-614,912,-7928,1574,-52,-140
98036,-624,772,-7876,1565,99,-96
98046,-656,788,-7842,1565,402,-48
98056,-536,746,-7800,1476,684,9
98066,-470,816,-7888,1384,822,71
98076,-344,826,-7934,1322,940,98
98086,-134,788,-8046,1302,1128,146
98096,-74,826,-7958,1339,1205,178
98106,108,778,-7998,1392,1167,139
98116,184,850,-8068,1433,1114,120
98126,132,806,-8134,1473,967,70
98136,136,818,-8104,1531,780,-11
98146,-4,854,-8190,1633,630,-75
98156,-16,868,-8290,1807,524,-113
98166,-38,948,-8410,2051,530,-147
98176,94,1050,-8426,2308,580,-192
98186,22,1030,-8380,2581,576,-252
98196,46,1094,-8368,2884,586,-318
98206,-166,1062,-8212,3083,490,-409
98216,-348,1074,-8144,3316,365,-509
98226,-470,1042,-8148,3498,259,-595
98236,-678,944,-8134,3567,278,-631
98246,-692,790,-8360,3673,486,-595
98256,-730,676,-8382,3882,909,-540
98266,-852,522,-8348,4196,1405,-574
98276,-1032,490,-8302,4450,1804,-622
98286,-1016,360,-8146,4711,2179,-619
98296,-976,20,-8242,5023,2822,-356
98306,-976,20,-8242,5023,2822,-356
98316,-562,-392,-7958,5351,3911,-37
98326,-192,-602,-7864,5394,4504,8
98336,584,-528,-7998,5470,5118,24
98347,428,-734,-7800,5482,5231,76
98357,680,-950,-7560,5688,5017,417
98367,834,-988,-7480,5696,5031,351
98377,734,-1180,-7432,5642,5154,20
98387,370,-1408,-7254,5280,5351,-171
98397,-602,-1592,-7130,4352,5519,17
98407,-1396,-1650,-8002,2344,5955,516
98417,-3062,-3290,-7950,-1470,6853,1302
98427,-3492,-4098,-7334,-6881,9698,1993
98437,-3164,-4686,-6792,-13991,14929,2552
98447,-1058,-4176,-4760,-21553,21098,3666
98457,2190,-2050,-3730,-26807,25948,5593
98467,6892,74,-4292,-29834,28552,7913
98477,9704,1806,-5074,-30798,27714,10247
98487,9856,3484,-5570,-29701,25168,11236
98497,8762,5940,-6378,-23802,17990,10362
98507,4426,4792,-4176,-15196,6740,9303
98518,3062,3432,-3040,-6940,-297,7997
98528,1244,2228,-508,-426,-2982,6229
98538,2824,1546,-2016,5152,-495,4737
98548,5694,1482,-3692,12366,1152,4490
98558,4988,1508,-2610,12524,861,5541
98568,7862,242,-4952,10850,3373,7687
98578,8152,-1286,-5110,8180,5398,8301
98588,7768,130,-6518,4657,8240,8309
98598,7804,232,-7556,2787,8770,8164
98608,7160,104,-7556,3488,5774,7162
98618,6906,-354,-7946,4227,4209,5599
98628,6644,-196,-7318,4854,2212,4124
98638,6624,-298,-7188,5549,764,3169
98648,6588,-316,-6960,4599,16,2708
98658,6698,-310,-6876,3426,344,2508
98668,6666,-152,-6578,1578,1266,2388
98678,6794,106,-6314,-445,2419,2199
98688,6954,316,-6126,-1469,3036,1919
98698,6686,686,-5734,-1503,3440,1562
98708,6600,668,-5574,-921,2712,1036
98718,5914,440,-5054,125,-732,-403
98728,5342,136,-4972,588,-2160,-1078
98738,5628,310,-5068,1487,-2797,-1426
98748,5406,300,-5042,1578,-2682,-1452
98758,5642,278,-5158,1467,-1596,-1244
98768,5672,184,-5400,1356,-950,-960
98778,5430,244,-5684,694,-335,-828
98788,5260,222,-5742,422,-152,-836
98798,5196,112,-5876,860,-525,-884
98808,5172,146,-5802,700,-971,-965
98818,5114,118,-5736,940,-1483,-1089
98828,5562,232,-5946,1274,-1536,-1210
98838,5944,306,-6054,1157,-1279,-1182
98848,6268,344,-6168,1046,-804,-1073
98859,6172,258,-6094,716,-262,-1121
98869,6066,360,-6082,343,99,-1322
98879,5946,446,-6068,35,4,-1569
98889,6102,562,-6034,-70,-422,-1734
98899,6704,664,-6014,86,-965,-1779
98909,7364,698,-5956,510,-1365,-1784
98919,7972,542,-5850,866,-1673,-1804
98929,8484,308,-5828,971,-2239,-2023
98939,8332,242,-5766,831,-3387,-2546
98949,8024,330,-5880,625,-5335,-3211
98959,7334,304,-5756,739,-9040,-3844
98969,7026,258,-6342,1497,-12799,-4224
98979,6588,188,-6090,2477,-15109,-4624
98989,6024,194,-6242,3600,-17006,-5164
98999,5030,262,-6172,3794,-17626,-5489
99009,4252,136,-6216,3652,-18537,-5741
99019,3652,-62,-6246,3150,-19215,-5980
99030,2844,-418,-6062,3052,-19885,-6336
99040,1604,-280,-5740,3036,-19534,-6474
99050,444,-176,-5980,3371,-18135,-6379
99060,18,-160,-6200,3247,-16316,-5970
99070,-512,202,-6282,3093,-14334,-5195
99080,-812,492,-6358,3109,-12507,-4252
99090,-1278,538,-6386,3441,-10722,-3415
99100,-1414,732,-6392,3563,-8834,-2801
99110,-1076,894,-6730,3413,-5409,-1951
99120,-1076,894,-6730,3413,-5409,-1951
99130,-792,646,-7552,2768,-2756,-1411
99140,-626,648,-8022,2572,-1383,-1411
99150,-418,406,-8406,2535,-558,-1581
99160,-560,514,-8502,2025,-245,-1801
99170,-488,328,-8682,1844,-18,-2049
99180,-914,302,-8590,1750,10,-2193
99190,-516,224,-8580,1530,-377,-2300
99200,-822,160,-8396,1348,-431,-2291
99210,-576,170,-8570,1056,-189,-2115
99220,-848,196,-8400,678,-272,-1862
99230,-358,274,-8442,300,-116,-1570
99240,-364,432,-8242,-109,62,-1323
99250,-222,300,-8530,-174,375,-1207
99260,172,346,-8478,-24,600,-1211
99270,-24,346,-8138,-19,297,-1279
99280,-84,416,-8004,174,348,-1364
99290,-286,382,-7870,518,-142,-1473
99300,-566,600,-7652,539,-564,-1505
99310,-1896,1904,-6718,473,-1014,-1539
99320,-1380,560,-7804,154,-1021,-1504
99330,-636,592,-8092,876,477,-959
99340,-116,448,-8054,1731,2241,-519
99350,200,148,-8172,2401,3766,-524
99360,762,-90,-8252,2672,4377,-673
99371,1072,-238,-8318,2500,3649,-811
99381,792,-442,-8052,2114,2178,-1061
99391,244,-478,-7974,1537,517,-1314
99401,-98,-354,-7970,1049,-671,-1486
99411,-254,-140,-7812,576,-1031,-1494
99421,-264,90,-7728,171,-342,-1399
99431,-62,300,-7774,78,1027,-1223
99441,220,420,-7726,225,2394,-1101
99451,652,564,-7822,525,3465,-1084
99461,988,664,-7758,1047,3882,-1217
99471,1108,744,-7728,1620,3402,-1524
99481,1116,654,-7756,2163,2396,-1808
99491,816,554,-7774,2703,1195,-1932
99501,366,414,-7896,3001,182,-1841
99511,128,144,-7934,2881,-381,-1653
99521,-130,36,-7972,2572,-237,-1463
99531,-186,-70,-8306,2234,270,-1310
99542,-318,-236,-8142,1827,814,-1210
99552,208,-84,-8432,1382,1369,-1039
99562,386,-106,-8336,1649,1577,-882
99572,482,-118,-8334,1803,1245,-726
99582,564,-142,-8240,1886,655,-601
99592,348,-216,-8208,2049,-469,-514
99602,46,-302,-8236,2058,-1508,-404
99612,-38,-290,-8252,2022,-2148,-182
99622,-254,-424,-8136,1903,-2278,98
99632,-212,-498,-8152,1671,-1971,274
99642,-292,-534,-8016,1339,-1417,363
99652,-222,-502,-7912,876,-720,440
99662,-94,-430,-7744,542,-66,520
99672,86,-388,-7702,504,314,586
99682,230,-324,-7768,701,353,555
99692,274,-360,-7912,1195,208,463
99702,290,-438,-7924,1872,-79,312
99712,206,-450,-7964,2543,-400,93
99722,290,-472,-7930,3021,-555,-158
99732,216,-514,-7902,3287,-488,-344
99742,172,-494,-7850,3402,-318,-405
99752,100,-548,-7832,3355,-166,-352
99762,262,-674,-7952,3141,7,-242
99772,750,-732,-8392,3006,132,-163
99782,528,-778,-8544,2685,-35,-184
99792,406,-788,-8422,2253,-496,-50
99802,428,-782,-8274,1982,-888,85
99812,258,-776,-8188,1876,-927,-105
99822,122,-832,-8110,2055,-750,-280
99832,-58,-868,-8026,2210,-613,-463
99842,-94,-958,-7876,2444,-641,-601
99852,-170,-914,-7798,2779,-875,-742
99862,-348,-1046,-7802,3261,-1271,-907
99872,-472,-1124,-7794,3578,-1496,-1057
99883,-588,-1138,-7634,3849,-1458,-1168
99893,-590,-1194,-7578,3991,-1147,-1182
99903,-420,-1642,-8158,3917,-732,-1188
99913,-596,-1352,-7818,3336,-602,-1077
99923,-634,-1432,-7706,2610,-445,-910
99933,-630,-1432,-7564,1987,-169,-810
99943,-584,-1368,-7416,1532,126,-711
99953,-520,-1392,-7376,1213,418,-539
99963,-490,-1406,-7346,1011,645,-385
99973,-322,-1446,-7596,1005,720,-267
99983,-152,-1474,-7762,1012,761,-205
99993,34,-1566,-8494,684,870,-185
100003,388,-1422,-8498,296,984,-88
100013,388,-1422,-8498,296,984,-88
100023,504,-1188,-8248,-44,1123,170
100033,474,-1112,-8044,-105,1138,303
100043,402,-1028,-7896,-23,990,412
