# label=pronation
# trial=2
# subject=handback_single
# captured_at=20260412_032030
# sensor_count=1
ts_ms,ax,ay,az,gx,gy,gz
5544,676,2072,-7892,1877,3444,1286
5554,506,1966,-7946,1822,2926,1092
5564,554,2054,-8086,1432,2710,916
5574,622,2022,-8236,941,2729,887
5584,644,1976,-8252,496,2870,971
5594,546,1878,-8310,232,2944,1076
5604,362,1804,-8314,173,2657,1159
5614,184,1744,-8336,224,2206,1223
5624,-8,1664,-8222,299,1760,1267
5634,-180,1598,-8120,291,1593,1293
5644,-232,1600,-8082,144,1985,1266
5654,-88,1618,-7998,-222,2704,1188
5664,22,1662,-7982,-594,3379,1139
5675,106,1758,-7936,-950,3818,1129
5685,256,1704,-8094,-1090,3684,1161
5695,0,1710,-7972,-1029,3063,1232
5705,-172,1710,-7962,-686,2317,1251
5715,-346,1616,-7912,-331,1698,1296
5725,-548,1472,-7858,-89,1540,1343
5735,-694,1418,-7860,-93,1907,1327
5745,-660,1390,-7836,-297,2638,1292
5755,-530,1426,-7794,-541,3372,1157
5765,-458,1504,-7866,-769,3733,1071
5775,-260,1632,-7986,-920,3889,1099
5785,-284,1568,-7916,-961,3678,1142
5795,-344,1516,-7982,-933,3209,1164
5805,-372,1514,-7958,-830,2872,1165
5815,-448,1476,-7934,-781,2738,1150
5825,-602,1450,-7918,-748,2874,1170
5835,-602,1520,-7830,-772,3238,1214
5846,-592,1450,-7812,-867,3657,1181
5856,-544,1490,-7806,-976,4000,1053
5866,-506,1470,-7830,-1087,4209,860
5876,-532,1530,-7892,-1153,3998,670
5886,-608,1532,-7930,-1041,3759,707
5896,-546,1432,-7958,-887,3575,813
5906,-646,1444,-7848,-722,3549,945
5916,-742,1406,-7978,-576,3794,1052
5926,-750,1408,-8482,-551,4078,1152
5936,-480,1066,-8034,-799,4175,1054
5946,-956,1250,-7966,-878,3947,1157
5956,-656,1270,-8100,-682,3809,1243
5966,-662,1194,-8062,-719,3904,961
5976,-594,1198,-8072,-887,3863,770
5986,-756,1288,-7932,-1037,3804,768
5996,-840,1290,-7884,-1112,3788,896
6006,-730,1286,-7894,-1222,3793,979
6016,-660,1306,-7918,-1273,3907,1037
6026,-700,1278,-7866,-1264,3979,1157
6036,-660,1280,-7828,-1264,4037,1358
6046,-606,1326,-7838,-1326,3990,1486
6056,-714,1292,-7816,-1406,3823,1419
6066,-722,1314,-7792,-1411,3667,1230
6076,-808,1362,-7824,-1348,3653,1116
6086,-766,1370,-7796,-1252,3811,1087
6096,-702,1300,-7858,-1177,4023,1117
6106,-636,1240,-7882,-1177,4293,1156
6116,-648,1292,-7944,-1243,4524,1230
6126,-586,1302,-7934,-1317,4590,1347
6136,-580,1276,-7906,-1367,4483,1467
6146,-592,1188,-7942,-1425,4246,1450
6156,-618,1260,-7986,-1478,3991,1280
6166,-702,1258,-7890,-1574,3840,1052
6176,-766,1300,-8014,-1611,3846,888
6187,-802,1376,-7988,-1594,3983,861
6197,-738,1404,-7942,-1528,4216,915
6207,-736,1440,-7934,-1470,4425,980
6217,-676,1480,-7960,-1394,4465,1051
6227,-680,1458,-8008,-1345,4400,1112
6237,-610,1396,-8022,-1300,4310,1144
6247,-642,1350,-8094,-1242,4204,1106
6257,-734,1324,-8046,-1271,4173,978
6267,-706,1308,-8118,-1389,4253,840
6277,-644,1320,-8018,-1502,4385,753
6287,-682,1354,-7992,-1559,4547,745
6297,-682,1422,-8016,-1573,4621,808
6307,-656,1416,-7952,-1470,4641,863
6317,-676,1364,-7908,-1318,4565,894
6327,-734,1350,-7926,-1181,4401,937
6337,-732,1298,-7906,-1092,4248,1030
6347,-676,1228,-7900,-1226,4268,1071
6358,-672,1226,-7910,-1454,4301,964
6368,-660,1278,-7918,-1688,4245,854
6378,-664,1288,-7786,-1829,4104,816
6388,-690,1300,-7780,-1885,3835,857
6398,-746,1388,-7706,-1820,3480,927
6408,-768,1362,-7660,-1673,3154,964
6418,-738,1328,-7746,-1462,2943,976
6428,-824,1376,-7942,-1332,2841,916
6438,-810,1158,-7766,-1567,2678,764
6448,-1250,1084,-7600,-1861,2326,838
6458,-1338,1238,-7624,-1995,2071,1036
6468,-1278,1296,-7654,-2214,2233,1091
6478,-1256,1354,-7634,-2450,2752,1100
6488,-1186,1464,-7614,-2576,3409,1159
6498,-1012,1496,-7650,-2526,4050,1244
6508,-954,1488,-7640,-2333,4321,1289
6518,-1020,1558,-7708,-2082,4138,1354
6528,-1068,1576,-7740,-1830,3775,1370
6538,-1088,1516,-7808,-1539,3488,1338
6548,-1084,1536,-7726,-1278,3424,1211
6558,-1102,1538,-7694,-1075,3551,1022
6568,-1140,1520,-7714,-965,3804,850
6578,-1188,1504,-7728,-862,4060,809
6588,-1166,1452,-7766,-778,4235,875
6598,-1140,1442,-7826,-787,4309,940
6608,-1112,1422,-7810,-978,4279,995
6618,-1144,1462,-7918,-1255,4184,1037
6628,-1104,1472,-7950,-1499,4113,1030
6638,-1104,1406,-8038,-1622,4155,1003
6648,-1032,1434,-7984,-1586,4303,985
6658,-1136,1510,-7956,-1486,4404,974
6668,-1114,1392,-7784,-1309,4396,1016
6678,-1188,1398,-7860,-1090,4295,1071
6688,-1252,1450,-7820,-936,4139,1093
6699,-1290,1360,-7840,-904,4042,1068
6709,-1314,1314,-7784,-910,4073,964
6719,-1278,1422,-7824,-976,4178,871
6729,-1218,1352,-7844,-1050,4407,806
6739,-1162,1320,-7844,-944,4918,832
6749,-1162,1320,-7844,-944,4918,832
6759,-980,1368,-7930,-792,4884,904
6769,-1084,1364,-7852,-804,4693,1042
6779,-996,1218,-7836,-886,4576,1223
6789,-1078,1318,-7930,-1054,4469,1398
6799,-1084,1358,-7898,-1346,4385,1466
6809,-1062,1360,-7930,-1658,4356,1431
6819,-1132,1332,-7802,-1850,4355,1352
6829,-1084,1402,-7812,-1802,4369,1336
6839,-1052,1458,-7854,-1639,4430,1328
6849,-1028,1456,-7790,-1541,4447,1328
6859,-1040,1412,-7756,-1503,4331,1474
6870,-1014,1500,-7760,-1562,4153,1692
6880,-1116,1592,-7730,-1751,3995,1888
6890,-1124,1634,-7666,-1893,3885,2032
6900,-1222,1760,-7600,-1892,3836,2164
6910,-1328,1808,-7476,-1837,3887,2258
6920,-1386,1784,-7332,-1710,3964,2280
6930,-1576,1716,-7188,-1493,4083,2375
6940,-1606,1724,-7112,-1372,4277,2569
6950,-1530,1694,-7126,-1393,4662,2798
6960,-1292,1954,-7128,-1449,5322,3081
6970,-1058,1934,-7004,-1360,5870,3332
6980,-656,2070,-7070,-1228,6593,3650
6990,-116,1922,-7584,-767,7527,3950
7000,-236,1652,-7626,-221,7497,4180
7010,-220,1486,-7860,331,7002,4196
7020,-456,1248,-7862,856,6301,3957
7030,-588,1048,-8000,1242,5872,3538
7040,-716,954,-8090,1492,5575,3075
7050,-726,820,-8142,1601,5832,2691
7060,-746,714,-8130,1569,6339,2503
7070,-568,662,-8322,1447,6815,2498
7080,-262,686,-8514,1291,7161,2598
7090,-16,642,-8566,1098,7294,2772
7100,118,630,-8648,883,6981,2946
7110,246,646,-8608,617,6344,3070
7120,254,668,-8512,345,5452,3034
7130,210,760,-8380,54,4504,2769
7140,130,840,-8232,-285,3668,2330
7150,194,954,-8008,-612,3188,1841
7160,266,1054,-8024,-742,2997,1402
7170,356,1104,-7958,-702,2921,1087
7180,410,1048,-7832,-545,2826,844
7190,674,1068,-7908,-299,2519,675
7200,516,996,-7738,36,1723,570
7211,-162,712,-7706,597,-948,475
7221,-730,664,-7684,639,-2193,514
7231,-1370,376,-7720,499,-2797,686
7241,-1786,248,-7778,285,-2602,854
7251,-2064,134,-7898,-54,-1471,992
7261,-1976,124,-7920,-440,301,1113
7271,-1802,138,-8006,-825,2338,1140
7281,-1542,158,-7936,-1151,3898,1108
7291,-1334,164,-7984,-1305,4633,1052
7301,-1340,202,-8010,-1282,4452,960
7311,-1458,194,-8022,-1199,3540,813
7321,-1544,366,-8078,-1039,2293,751
7331,-1754,478,-8072,-884,1357,788
7341,-1962,332,-7984,-786,843,914
7351,-2060,318,-7990,-680,912,1079
7361,-1958,338,-7952,-583,1242,1186
7371,-1954,278,-7934,-564,1773,1232
7382,-1938,256,-8038,-554,2392,1277
7392,-1848,352,-8116,-640,2692,1289
7402,-2034,376,-7876,-943,2680,1180
7412,-1924,614,-8000,-1080,2737,1117
7422,-1862,674,-7964,-1144,2881,890
7432,-1930,620,-7908,-1146,3065,703
7442,-1948,502,-7930,-1005,3291,539
7452,-2024,354,-7876,-888,3538,416
7462,-2124,222,-7872,-882,3701,408
7472,-2100,240,-7994,-1012,3810,438
7482,-2054,258,-8080,-1324,3999,413
7492,-2040,360,-8084,-1757,4327,395
7502,-1980,458,-8068,-2254,4757,345
7512,-1846,472,-8046,-2736,5196,235
7522,-1766,508,-7904,-3040,5652,209
7532,-1662,566,-7878,-3123,5957,340
7542,-1634,598,-7840,-2962,5977,561
7552,-1494,562,-7806,-2662,5684,779
7562,-1458,550,-7866,-2416,5168,823
7572,-1392,582,-7848,-2214,4566,759
7582,-1602,542,-7870,-1958,3969,670
7592,-1746,554,-7832,-1537,3531,639
7602,-1726,416,-7788,-1110,3423,572
7612,-1868,514,-7712,-793,3558,453
7622,-1826,616,-7742,-601,3833,372
7632,-1848,464,-7548,-554,4697,453
7642,-1848,464,-7548,-554,4697,453
7652,-1774,316,-7648,-658,5210,801
7662,-1658,320,-7708,-749,5237,931
7672,-1702,332,-7776,-855,5198,956
7682,-1718,476,-7846,-872,5146,948
7692,-1672,464,-7824,-902,5159,832
7702,-1708,374,-7782,-956,5232,610
7712,-1740,356,-7690,-988,5329,421
7723,-1708,278,-7682,-1073,5469,315
7733,-1704,240,-7670,-1215,5510,358
7743,-1686,162,-7678,-1383,5536,493
7753,-1594,154,-7706,-1543,5643,706
7763,-1496,216,-7756,-1653,5808,943
7773,-1356,342,-7776,-1702,5916,1096
7783,-1408,528,-7874,-1616,5949,1134
7793,-1372,332,-7796,-1550,5768,1006
7803,-1340,324,-7828,-1315,5379,865
7813,-1302,262,-7756,-1066,4913,774
7823,-1322,208,-7736,-907,4419,744
7833,-1410,102,-7728,-883,4040,768
7843,-1478,160,-7786,-973,3884,807
7853,-1532,238,-7896,-1159,3979,861
7863,-1498,262,-7958,-1348,4252,914
7873,-1446,316,-7944,-1432,4593,931
7883,-1382,294,-7898,-1405,4824,901
7894,-1384,268,-7892,-1275,4825,839
7904,-1320,278,-7890,-1108,4593,807
7914,-1374,258,-7792,-1045,4274,798
7924,-1378,276,-7790,-1118,3981,826
7934,-1402,282,-7838,-1287,3865,861
7944,-1408,304,-7878,-1429,3992,906
7954,-1402,284,-7874,-1463,4288,930
7964,-1334,298,-7854,-1401,4643,882
7974,-1274,264,-7946,-1316,4882,759
7984,-1246,270,-7958,-1260,4948,596
7994,-1218,282,-7918,-1266,4858,499
8004,-1212,238,-7970,-1346,4710,507
8014,-1242,234,-7928,-1495,4601,583
8024,-1282,400,-7908,-1705,4582,667
8034,-1430,458,-7830,-1876,4675,779
8044,-1294,440,-7778,-1901,4849,824
8054,-1244,316,-7856,-1716,5136,798
8064,-1244,316,-7856,-1716,5136,798
8074,-1242,296,-7844,-1763,4803,1021
8084,-1268,244,-7886,-1977,4573,1143
8094,-1266,288,-7834,-2264,4448,1249
8104,-1294,312,-7912,-2532,4493,1369
8114,-1248,412,-7980,-2753,4648,1392
8124,-1366,454,-7942,-2911,4807,1347
8134,-1322,574,-7994,-2883,4903,1313
8144,-1230,624,-7948,-2692,4928,1239
8154,-1106,714,-7914,-2288,4919,1155
8164,-964,660,-8008,-1835,4844,990
8174,-954,556,-7962,-1347,4668,814
8184,-1090,600,-8034,-1011,4390,655
8194,-1208,496,-7952,-1014,4061,545
8204,-1228,518,-8024,-1200,3860,540
8214,-1300,586,-7968,-1410,3929,617
8224,-1284,570,-7938,-1588,4239,715
8235,-1232,572,-7874,-1676,4653,767
8245,-1288,594,-7894,-1695,4922,772
8255,-1232,600,-7874,-1624,4925,799
8265,-1218,630,-7846,-1522,4740,802
8275,-1170,582,-7916,-1384,4507,796
8285,-1132,612,-7860,-1254,4342,770
8295,-1156,610,-7744,-1238,4284,763
8305,-1194,530,-7846,-1361,4296,797
8315,-1300,524,-7708,-1613,4286,916
8325,-1340,546,-7668,-1909,4198,1156
8335,-1296,628,-7666,-2121,4163,1360
8345,-1224,810,-7848,-2186,4211,1541
8355,-1168,782,-7830,-2136,4333,1584
8365,-1064,814,-7848,-2002,4476,1497
8375,-1088,948,-7996,-1800,4534,1405
8385,-916,852,-7922,-1586,4485,1173
8395,-980,794,-7996,-1365,4325,939
8406,-902,770,-7960,-1198,4106,807
8416,-1022,706,-7878,-1158,3841,721
8426,-994,666,-7920,-1165,3524,735
8436,-1186,572,-7918,-1245,3233,809
8446,-1252,682,-7842,-1559,2867,953
8456,-1252,682,-7842,-1559,2867,953
8466,-1232,668,-7716,-1712,2814,967
8476,-940,844,-7534,-1817,2818,1052
8486,-504,988,-7758,-1857,2599,1057
8496,-578,926,-7474,-1716,1972,961
8506,-608,952,-7450,-1270,799,855
8516,-1122,788,-7422,-718,-844,676
8526,-1674,756,-7386,-90,-2589,541
8536,-2066,622,-7310,456,-3872,365
8546,-2290,686,-7210,937,-4232,226
8556,-2388,692,-7232,1394,-3479,87
8566,-2186,674,-7274,1820,-1859,-92
8576,-1768,792,-7330,2353,10,-345
8586,-1602,576,-7168,3064,1051,-799
8596,-1666,430,-7256,3902,1332,-1389
8606,-1878,108,-7268,5035,777,-2002
8616,-2342,-236,-7456,6214,-424,-2401
8626,-2776,-570,-7594,7060,-1415,-2588
8636,-3038,-926,-7682,7428,-1649,-2679
8646,-3304,-1272,-7682,7318,-1068,-2860
8656,-3452,-1390,-7822,6812,460,-3304
8666,-3436,-1716,-8106,6132,2592,-4235
8676,-3284,-1976,-8252,5593,4677,-5538
8686,-3276,-2384,-8362,5405,6179,-7034
8696,-2932,-2844,-8536,5462,6978,-8727
8706,-2800,-3262,-8748,5497,7525,-10549
8716,-2948,-3690,-8824,5268,7611,-12152
8726,-3196,-3924,-8884,4520,7536,-13081
8736,-2964,-4014,-8972,2868,7742,-13358
8747,-2698,-3878,-9344,180,8186,-13106
8757,-2596,-4024,-9332,-3554,8638,-12218
8767,-2440,-4204,-9030,-8450,7803,-11097
8777,-1898,-4386,-8680,-14050,5370,-10221
8787,-1404,-4340,-8340,-19670,1467,-9809
8797,-1070,-3992,-8104,-25090,-3189,-9481
8807,-1802,-3298,-8122,-29858,-8018,-8712
8817,-2754,-1916,-8282,32483,-11279,-6697
8827,-4388,-1156,-7822,31434,-12164,-3727
8837,-5064,-304,-6876,31497,-11119,-594
8847,-4232,558,-6130,-32709,-8774,1684
8857,-3460,1202,-5672,-30784,-7003,3700
8867,-3672,2296,-5786,-29560,-7266,5617
8877,-4782,2478,-6296,-28748,-9385,7190
8887,-5344,2626,-6058,-28328,-11970,8317
8897,-5924,2726,-4408,-27741,-13663,9288
8907,-5754,2770,-3336,-25769,-14422,10534
8918,-6076,4646,-2520,-21427,-13984,13319
8928,-5450,5768,-2530,-19269,-12478,14736
8938,-5548,5614,-1710,-16750,-11941,15989
8948,-5166,5788,-1266,-14032,-11812,17152
8958,-5672,6030,-1352,-10682,-11660,17939
8968,-5524,6118,-582,-6898,-11871,18280
8978,-4724,5932,-472,-3964,-10454,18394
8988,-3800,5740,-202,-1939,-8130,18477
8998,-3620,5730,-354,476,-5228,18568
9008,-3394,5814,-508,2599,-2613,18602
9018,-3010,6092,-846,4111,-651,18745
9028,-1870,6408,-1072,5611,593,18775
9038,-1592,6706,-992,7170,1928,18775
9048,-938,6718,-954,9064,2871,18461
9058,-632,6342,-1278,11543,3537,17804
9068,-138,5580,-1404,14225,4055,17020
9078,144,4840,-1730,16430,4245,15882
9088,398,4364,-2442,17250,3411,14457
9098,1078,4812,-3284,17146,3241,12959
9108,2146,5584,-3786,16239,3706,11415
9118,3106,6656,-4116,15690,5086,9657
9128,3496,7180,-4362,16552,6729,7547
9138,3802,7638,-4362,19508,7264,5000
9148,3966,5958,-4344,23597,6667,2187
9158,4082,4818,-4420,27357,5065,-681
9168,4066,2928,-4564,31432,2646,-3606
9178,4532,1692,-4954,31432,-179,-6040
9188,2554,-416,-5528,31432,-1924,-7586
9198,2292,-124,-6784,31432,-2518,-9740
9208,2192,-754,-7206,31105,-1264,-11463
9218,1312,-980,-7628,28500,924,-12411
9228,654,-1078,-8082,26047,3066,-13005
9238,1294,-1192,-8476,23758,4750,-13407
9248,1192,-1962,-8936,22429,5530,-13598
9259,1392,-2088,-8786,21922,4451,-14007
9269,1888,-3244,-9308,20883,2949,-14864
9279,1826,-4152,-9358,19673,2486,-15687
9289,1348,-4594,-9302,18586,1485,-16474
9299,328,-5286,-9420,17437,250,-17133
9309,-1120,-5676,-9448,15652,-424,-17544
9319,-1316,-5642,-9288,13190,28,-17365
9329,-1628,-5890,-8346,9901,2121,-16991
9339,-768,-5366,-8950,2247,6340,-15822
9349,-768,-5366,-8950,2247,6340,-15822
9359,34,-5070,-9022,-4918,7763,-14746
9369,164,-4718,-8726,-7571,7107,-14413
9379,406,-4518,-8494,-9285,6114,-14260
9389,160,-4264,-8468,-10150,5629,-14522
9399,62,-4110,-7810,-10751,5667,-15095
9409,2,-3516,-8730,-11532,6591,-15298
9419,742,-3040,-8372,-12390,7346,-15048
9430,1090,-2736,-8508,-13419,9687,-14532
9440,1788,-2476,-8582,-14264,11178,-13959
9450,2906,-2182,-8680,-15636,10167,-13365
9460,3198,-1660,-8432,-17785,6496,-12840
9470,2814,-1432,-8276,-19854,517,-11915
9480,2380,-1850,-7542,-21952,-5224,-10571
9490,2714,-1408,-7782,-24087,-10104,-9014
9500,896,-1458,-7080,-25123,-13987,-7654
9510,-724,-710,-7020,-26596,-15723,-5596
9520,-2442,746,-7512,-27621,-16114,-2851
9530,-2236,1370,-7640,-27645,-16064,215
9540,-1772,2220,-7644,-27380,-15997,2779
9550,-888,2946,-6956,-27059,-15266,4355
9560,-2000,3288,-6638,-26314,-16613,5140
9570,-2442,3988,-5832,-25228,-19485,5637
9580,-3486,4664,-5076,-22281,-23594,5759
9590,-4554,4912,-4474,-18664,-26796,5835
9600,-4278,5614,-4010,-15438,-28403,5548
9610,-4700,5612,-2892,-12511,-28403,5631
9620,-4134,5632,-3048,-8528,-26996,6445
9630,-4866,6232,-1958,-6314,-26560,7521
9640,-5338,5766,-2382,-3651,-25071,8763
9650,-5206,5996,-1876,-2726,-24426,10179
9660,-5698,6432,-2394,-1262,-21148,11892
9670,-5420,6628,-2306,-16,-18695,13427
9680,-5372,6988,-2130,1615,-16154,14812
9690,-4660,7234,-1770,4053,-12990,15527
9700,-4700,6852,-1586,6777,-9016,15993
9710,-4426,5852,-1834,9906,-4945,16278
9720,-3920,5522,-2016,12191,-732,16096
9730,-2094,5144,-2048,12777,3329,15264
9740,-1922,5548,-2228,12566,6986,13753
9750,-526,6090,-2380,12423,9945,11593
9760,1084,6464,-3050,12666,11615,8724
9771,582,6164,-3406,14302,11512,5783
9781,-230,4366,-3782,19246,3052,2027
9791,-1216,3914,-4204,21036,-1833,391
9801,-1598,3370,-4912,21871,-4184,-886
9811,-2068,2874,-5272,21831,-3835,-1561
9821,-2356,2576,-5538,21152,-1389,-1584
9831,-1482,2896,-5732,20191,1981,-1582
9841,-1258,2434,-5900,19994,4568,-2028
9851,-608,2268,-6038,20363,5505,-3161
9861,-730,1552,-6464,21344,5142,-4754
9871,-816,894,-6668,21928,3904,-6354
9881,-662,238,-7442,21439,2874,-7494
9891,-998,-146,-7860,19390,2480,-8012
9901,-908,-380,-8126,16962,3470,-7959
9911,-1038,-656,-8556,15281,4635,-7940
9921,-1204,-980,-8740,13928,5274,-8030
9931,-1132,-1196,-8700,12775,5408,-8115
9942,-1306,-1484,-8658,11778,5096,-8271
9952,-1320,-1866,-8628,10866,4862,-8598
9962,-1694,-2200,-8462,10020,4405,-9063
9972,-1944,-2324,-8408,9422,4109,-9492
9982,-2428,-2554,-8186,8998,4163,-9891
9992,-2630,-2814,-8222,8774,4484,-10254
10002,-2666,-3088,-8082,8413,5081,-10710
10012,-2568,-3480,-7852,7774,5803,-11276
10022,-1220,-3696,-8864,6837,6317,-11815
10032,-2830,-3738,-7744,6000,6635,-12416
10042,-2530,-3838,-7618,5567,6548,-13045
10052,-2418,-4178,-7898,4886,6778,-13596
10062,-1964,-4400,-7374,4323,7443,-13956
10072,-2216,-4780,-7646,3446,8166,-14364
10082,-1798,-4690,-7810,2753,8663,-14711
10092,-1484,-4828,-7664,1440,9295,-15119
10102,-1240,-4852,-7798,276,9738,-15707
10112,-900,-4846,-7780,-810,10118,-16769
10122,-644,-4750,-7638,-2300,10583,-18007
10132,-484,-4806,-7818,-3599,11061,-19141
10142,-1136,-4648,-7754,-4986,10867,-19780
10152,-420,-4578,-7800,-6463,10224,-19617
10162,-60,-4374,-7780,-7850,10045,-18775
10172,546,-4194,-7988,-9559,11029,-17255
10182,1196,-3902,-8462,-12261,12136,-15341
10192,2378,-3646,-9124,-15402,12516,-13258
10202,2640,-3608,-8742,-18251,10865,-11147
10212,2382,-3374,-8570,-20738,7892,-8661
10222,2952,-3062,-8298,-22781,3492,-6087
10232,2242,-2276,-7894,-25689,-6337,-2082
10242,2242,-2276,-7894,-25689,-6337,-2082
10252,1482,-1254,-7802,-26508,-13707,-35
10262,492,-708,-7996,-26423,-15400,460
10272,-538,6,-7964,-25885,-16461,893
10283,-1958,934,-7540,-25125,-17335,1553
10293,-2392,1618,-7460,-23890,-17585,2367
10303,-2048,2616,-6730,-22543,-16605,3078
10313,-2622,2572,-6200,-21338,-15456,3927
10323,-2572,3342,-6570,-20184,-14581,4855
10333,-2576,3640,-5922,-19378,-15237,5520
10343,-2344,4126,-5586,-18761,-15886,6299
10353,-2718,4876,-5044,-17984,-16443,7187
10363,-3288,4908,-4736,-16896,-17713,8271
10373,-3750,5476,-5010,-14533,-18320,9514
10383,-3650,4962,-3658,-12185,-19328,10815
10393,-4494,5014,-3386,-10363,-18454,12177
10403,-4900,4986,-2960,-9014,-17360,13614
10413,-4648,5902,-3812,-7810,-16444,15147
10423,-3928,6666,-3828,-6686,-14604,16404
10433,-3812,6788,-3140,-5543,-12035,17158
10443,-3794,7184,-2988,-3453,-9355,17646
10454,-3276,7476,-2790,-960,-7439,17660
10464,-2946,7100,-2736,1510,-5943,16976
10474,-3058,6364,-2072,3332,-4355,15781
10484,-2242,5912,-2210,4627,-2423,13983
10494,-898,5868,-2366,5282,629,12084
10504,304,6462,-2694,5638,3422,10357
10514,152,7232,-2960,6425,4874,8697
10524,-236,7466,-2990,7694,4208,6756
10534,-494,7196,-3532,9494,2787,4716
10544,-906,6574,-3836,12449,777,2865
10554,-1638,4724,-3724,15325,-1323,1565
10564,-2182,3536,-4224,16657,-2455,1297
10574,-2062,3742,-4898,17034,-1284,1700
10584,-524,4716,-5050,16442,1819,2171
10594,-560,4810,-5898,16026,5212,2492
10604,852,5330,-6188,17003,7612,1841
10614,1008,4778,-6408,19206,7877,180
10624,472,3844,-6078,22554,4870,-2175
10634,-232,2038,-6216,25520,729,-4552
10644,-54,1666,-6232,26781,-1985,-6791
10654,-184,32,-6590,24339,-679,-10682
10664,-820,-298,-7214,22345,1738,-11757
10674,-1134,-308,-7948,19995,3898,-12077
10684,-1624,-564,-8228,17783,5598,-12035
10694,-1450,-772,-8396,16188,6721,-11844
10704,-1092,-1298,-8360,14849,7584,-11954
10714,-962,-1868,-8130,13657,8443,-12340
10724,-1002,-2316,-8344,12358,8859,-12489
10734,-1058,-2486,-8384,10797,8878,-12240
10744,-1426,-2738,-8384,9132,7953,-11930
10754,-1894,-2994,-8554,7335,6630,-11515
10764,-2050,-3310,-8542,5787,5238,-11180
10774,-2246,-3498,-8570,4505,4538,-10935
10784,-2282,-3560,-8498,3346,4740,-10803
