# label=ulnar_deviation
# trial=2
# subject=handback_single
# captured_at=20260412_031339
# sensor_count=1
ts_ms,ax,ay,az,gx,gy,gz
5544,-758,734,-8024,589,201,-313
5554,-902,680,-7974,504,11,-406
5564,-1008,698,-7932,366,-128,-444
5574,-992,726,-7884,220,-172,-439
5584,-1050,742,-7922,104,-80,-439
5594,-1076,716,-7962,64,123,-442
5604,-1056,704,-7930,116,320,-444
5614,-1038,720,-7972,223,464,-424
5624,-1004,700,-8018,370,520,-401
5634,-1022,682,-7954,502,451,-377
5644,-1062,692,-8000,559,323,-356
5654,-1042,630,-8064,539,190,-326
5664,-1114,626,-7996,466,88,-322
5675,-1192,664,-7980,394,45,-328
5685,-1250,620,-7980,324,74,-295
5695,-1264,664,-7962,264,122,-248
5705,-1284,730,-7894,197,178,-194
5715,-1210,752,-7932,144,246,-131
5725,-1124,764,-7844,118,313,-64
5735,-1114,794,-7810,128,337,-39
5745,-1134,770,-7748,193,280,-70
5755,-1198,798,-7734,285,169,-94
5765,-1220,786,-7684,355,67,-76
5775,-1194,784,-7680,394,37,-34
5785,-1190,776,-7746,396,112,11
5795,-1072,806,-7766,387,231,44
5805,-1086,776,-7772,399,309,50
5815,-1080,788,-7794,425,294,40
5825,-1062,756,-7816,440,210,41
5835,-1074,758,-7810,446,107,35
5846,-1104,744,-7842,437,71,23
5856,-1086,762,-7906,443,138,4
5866,-1080,706,-7954,465,268,-12
5876,-1086,728,-7928,514,395,-48
5886,-1048,718,-7940,570,461,-80
5896,-1044,698,-7958,599,452,-63
5906,-1062,678,-7984,594,401,-41
5916,-1008,706,-7968,569,381,-9
5926,-1036,746,-8080,479,389,25
5936,-1036,746,-8080,479,389,25
5946,-984,714,-7954,414,316,0
5956,-1008,716,-8000,374,235,-52
5966,-1064,726,-8032,329,192,-89
5976,-1040,732,-7992,292,212,-97
5986,-970,748,-7980,284,312,-88
5996,-940,714,-7994,309,427,-72
6006,-962,690,-7996,332,461,-66
6016,-972,688,-7958,335,402,-70
6026,-978,720,-7900,309,270,-70
6036,-1032,740,-7898,265,138,-73
6046,-1102,710,-7922,234,97,-85
6056,-1062,722,-7944,224,168,-103
6066,-1082,696,-7912,240,291,-126
6076,-1060,694,-7966,258,392,-147
6086,-1042,682,-7902,256,426,-158
6096,-1062,696,-7910,237,389,-155
6106,-1032,744,-7924,223,321,-141
6116,-1088,760,-7858,240,264,-125
6126,-1110,754,-7890,304,241,-107
6136,-1096,722,-7860,374,253,-74
6146,-1098,696,-7900,405,265,-54
6156,-1100,706,-7892,398,233,-50
6166,-1108,678,-7930,343,188,-63
6176,-1132,670,-7938,273,164,-76
6187,-1182,696,-7936,206,180,-103
6197,-1188,702,-7902,155,231,-116
6207,-1192,724,-7886,120,325,-110
6217,-1116,744,-7916,123,433,-74
6227,-1064,790,-7896,177,514,-24
6237,-1042,792,-7900,252,511,12
6247,-1046,806,-7814,347,402,31
6257,-1068,758,-7790,433,220,29
6267,-1100,728,-7884,461,43,3
6277,-1144,694,-7854,423,-45,-29
6287,-1172,692,-7840,355,-15,-63
6297,-1148,714,-7908,288,141,-76
6307,-1116,802,-7908,255,369,-77
6317,-1050,756,-7956,271,564,-50
6327,-980,804,-7936,337,630,-22
6337,-914,752,-7862,413,547,-15
6347,-962,784,-7898,448,322,-42
6358,-1000,742,-7862,453,65,-80
6368,-1052,846,-7912,424,-92,-137
6378,-1094,854,-7876,442,71,-173
6388,-1036,756,-7828,492,301,-210
6398,-970,902,-7894,543,493,-268
6408,-954,638,-7888,550,482,-326
6418,-990,616,-7872,534,335,-382
6428,-1018,752,-7906,498,96,-397
6438,-994,708,-7900,452,-95,-395
6448,-1064,730,-7894,413,-181,-405
6458,-1080,726,-7836,375,-162,-447
6468,-1000,722,-7894,330,-80,-518
6478,-1090,714,-7868,281,-38,-572
6488,-1072,714,-7850,265,-77,-553
6498,-1080,660,-7938,254,-160,-516
6508,-1190,658,-7958,224,-278,-468
6518,-1230,634,-7946,158,-412,-418
6528,-1194,774,-8084,9,-457,-362
6538,-1416,720,-7820,-189,-417,-307
6548,-1388,1088,-8312,-261,-335,-209
6558,-1282,472,-7836,-583,-287,-353
6568,-1584,650,-7694,-769,-435,-148
6578,-1346,684,-7934,-428,-356,-52
6588,-1276,858,-7936,-170,-120,-231
6598,-1336,806,-7908,-129,85,-244
6608,-1308,842,-7934,-145,231,-164
6618,-1240,838,-7844,-213,230,-124
6628,-1268,746,-7850,-274,47,-90
6638,-1252,750,-7880,-252,-208,-63
6648,-1356,804,-7960,-232,-413,-49
6658,-1396,796,-7922,-244,-524,-31
6668,-1468,796,-7888,-316,-516,-5
6678,-1510,848,-7894,-341,-389,32
6688,-1420,840,-7918,-343,-167,80
6699,-1344,882,-7888,-283,35,128
6709,-1254,972,-7916,-202,103,134
6719,-1220,1074,-7858,-208,-43,124
6729,-1202,1056,-7796,-224,-389,93
6739,-1252,1114,-7848,-78,-811,51
6749,-1324,1056,-7746,146,-1203,21
6759,-1446,1022,-7740,397,-1524,11
6769,-1590,1012,-7738,644,-1746,53
6779,-1574,980,-7782,770,-1917,102
6789,-1742,904,-7730,781,-1996,85
6799,-1832,872,-7808,724,-1912,78
6809,-1662,946,-7806,606,-1478,15
6819,-1670,930,-7764,541,-1058,10
6829,-1634,954,-7754,430,-1251,-29
6839,-1812,978,-7678,343,-1655,-108
6849,-2128,874,-7630,215,-2052,-164
6859,-2106,982,-7656,254,-1933,-172
6870,-2260,846,-7688,296,-1741,-207
6880,-2332,870,-7658,297,-1410,-142
6890,-2224,866,-7748,274,-962,-76
6900,-2148,894,-7702,235,-322,-38
6910,-2082,824,-7628,172,162,-102
6920,-2108,938,-7628,49,347,-172
6930,-2090,924,-7608,-78,335,-202
6940,-2090,976,-7576,-122,181,-215
6950,-2062,1040,-7598,-68,24,-190
6960,-2050,1084,-7632,83,-59,-143
6970,-2026,1018,-7630,289,-150,-90
6980,-2076,956,-7666,515,-354,-46
6990,-2110,880,-7706,686,-653,-26
7000,-2252,876,-7688,756,-922,-62
7010,-2346,860,-7718,735,-1046,-92
7020,-2362,870,-7682,651,-942,-90
7030,-2386,862,-7674,528,-635,-103
7040,-2404,864,-7694,402,-229,-104
7050,-2376,884,-7660,242,175,-91
7060,-2292,936,-7680,82,488,-65
7070,-2190,978,-7628,-36,661,-49
7080,-2102,1006,-7618,-84,694,-38
7090,-2114,1000,-7600,-84,611,-27
7100,-2142,980,-7494,-53,445,-20
7110,-2122,1058,-7502,12,289,-21
7120,-2166,1012,-7456,124,200,-18
7130,-2198,976,-7494,277,192,-49
7140,-2230,944,-7496,438,257,-112
7150,-2212,948,-7548,535,347,-156
7160,-2114,986,-7598,574,431,-149
7170,-2178,992,-7562,584,422,-123
7180,-2146,952,-7612,574,358,-112
7190,-2222,956,-7554,569,243,-120
7200,-2336,972,-7582,542,118,-124
7211,-2372,1052,-7556,527,110,-116
7221,-2400,996,-7440,591,278,-116
7231,-2216,1028,-7542,1082,896,-142
7241,-2160,1012,-7544,1388,1097,-154
7251,-2146,864,-7558,1578,1112,-136
7261,-2128,776,-7652,1682,987,-35
7271,-2086,762,-7668,1701,842,27
7281,-2148,674,-7694,1621,755,-4
7291,-2160,660,-7690,1487,758,-105
7301,-2236,612,-7756,1322,893,-198
7311,-2302,644,-7788,1159,1128,-227
7321,-2228,648,-7792,999,1423,-194
7331,-2202,660,-7760,855,1769,-142
7341,-2074,676,-7720,834,2084,-98
7351,-1938,668,-7690,813,2361,-131
7361,-1850,700,-7714,797,2502,-208
7371,-1800,640,-7674,808,2484,-240
7382,-1702,666,-7722,845,2359,-249
7392,-1630,572,-7790,853,2146,-335
7402,-1624,612,-7780,803,1896,-413
7412,-1650,622,-7790,696,1661,-444
7422,-1674,628,-7800,563,1431,-421
7432,-1734,646,-7818,496,1271,-368
7442,-1720,606,-7796,436,1186,-302
7452,-1734,596,-7826,440,1122,-247
7462,-1730,564,-7886,486,1099,-214
7472,-1692,598,-7900,496,1059,-202
7482,-1578,608,-7954,499,986,-216
7492,-1580,632,-7930,493,901,-226
7502,-1530,576,-7902,509,799,-226
7512,-1522,612,-7916,543,690,-196
7522,-1514,608,-7844,618,536,-143
7532,-1492,554,-7902,702,383,-99
7542,-1588,536,-7848,772,272,-88
7552,-1608,490,-7826,819,189,-104
7562,-1690,510,-7800,824,196,-123
7572,-1718,458,-7814,805,319,-110
7582,-1650,440,-7810,768,498,-86
7592,-1516,440,-7842,719,655,-71
7602,-1674,476,-7782,639,721,-96
7612,-1522,460,-7856,586,702,-108
7622,-1564,466,-7878,478,609,-119
7632,-1628,502,-7750,337,465,-93
7642,-1662,496,-7760,179,347,-55
7652,-1644,484,-7758,57,326,-40
7662,-1634,552,-7854,19,392,-41
7672,-1682,446,-7804,62,525,-76
7682,-1548,488,-7878,182,656,-115
7692,-1560,534,-7776,283,750,-167
7702,-1446,518,-7808,315,644,-100
7712,-1440,498,-7826,244,500,-54
7723,-1504,538,-7788,163,344,-11
7733,-1526,552,-7758,85,215,-2
7743,-1534,496,-7838,28,127,-23
7753,-1596,510,-7828,-25,111,-37
7763,-1540,536,-7882,-66,151,-29
7773,-1494,598,-7820,-88,241,-20
7783,-1438,596,-7866,-54,312,-17
7793,-1376,618,-7874,61,294,-2
7803,-1336,608,-7806,230,118,28
7813,-1366,546,-7836,407,-282,51
7823,-1322,574,-7798,542,-859,56
7833,-1406,536,-7894,641,-1491,81
7843,-1682,580,-7922,678,-2033,81
7853,-1788,506,-7946,673,-2359,99
7863,-1952,450,-7874,572,-2378,129
7873,-2068,474,-7944,354,-2158,148
7883,-2026,498,-7844,26,-1752,186
7894,-2070,490,-7892,-314,-1303,221
7904,-1982,510,-7760,-612,-955,264
7914,-1936,564,-7696,-864,-788,267
7924,-1884,576,-7708,-1061,-807,275
7934,-1962,668,-7770,-1171,-977,303
7944,-2046,658,-7802,-1218,-1140,298
7954,-2092,696,-7848,-1192,-1214,296
7964,-2086,750,-7824,-1126,-1069,286
7974,-2192,812,-7840,-1036,-871,244
7984,-2242,814,-7772,-979,-609,242
7994,-2190,898,-7820,-949,-306,241
8004,-2162,888,-7712,-991,-56,262
8014,-2080,940,-7622,-984,99,278
8024,-2050,1000,-7608,-947,172,264
8034,-2028,1008,-7636,-884,171,238
8044,-2020,1030,-7620,-842,105,248
8054,-2086,1092,-7548,-810,19,257
8064,-2152,1030,-7552,-777,-30,253
8074,-2268,1118,-7550,-687,53,234
8084,-2272,1078,-7568,-556,297,234
8094,-2236,1134,-7542,-405,634,246
8104,-2086,1140,-7486,-224,1200,227
8114,-2086,1140,-7486,-224,1200,227
8124,-2032,1224,-7504,-37,1248,75
8134,-2038,1202,-7538,91,1148,52
8144,-2002,1200,-7470,232,1033,85
8154,-1998,1194,-7450,373,936,133
8164,-1970,1258,-7496,512,867,156
8174,-1950,1196,-7452,663,789,187
8184,-1954,1166,-7526,836,641,225
8194,-1974,1124,-7548,1013,401,163
8204,-2068,1106,-7594,1180,134,-7
8214,-2128,1082,-7582,1312,-49,-149
8224,-2190,1044,-7636,1362,-48,-159
8235,-2128,1008,-7578,1334,117,-101
8245,-2108,1024,-7658,1207,385,-34
8255,-2062,1010,-7614,1062,643,26
8265,-2038,956,-7660,945,793,62
8275,-2048,1000,-7672,876,814,89
8285,-2006,952,-7658,809,765,124
8295,-2024,940,-7720,791,710,185
8305,-1970,954,-7746,808,718,272
8315,-1942,944,-7794,831,791,309
8325,-1924,892,-7822,812,877,268
8335,-1978,896,-7814,771,957,217
8345,-1932,912,-7804,713,1022,236
8355,-1896,914,-7788,638,1074,275
8365,-1906,918,-7804,546,1115,343
8375,-1874,932,-7766,458,1177,448
8385,-1864,918,-7754,422,1235,506
8395,-1838,896,-7704,398,1286,454
8406,-1740,874,-7706,399,1287,292
8416,-1738,896,-7778,402,1222,149
8426,-1758,886,-7740,397,1168,70
8436,-1786,934,-7726,386,1148,27
8446,-1700,882,-7796,393,1170,-22
8456,-1730,876,-7808,387,1250,-117
8466,-1690,900,-7752,369,1317,-220
8476,-1616,890,-7756,346,1334,-312
8486,-1690,958,-7724,314,1299,-368
8496,-1622,836,-7736,330,1239,-342
8506,-1588,888,-7768,339,1176,-266
8516,-1624,908,-7786,314,1115,-184
8526,-1502,984,-7864,267,934,-102
8536,-1502,984,-7864,267,934,-102
8546,-1424,1002,-7770,384,760,-9
8556,-1396,970,-7778,473,670,0
8566,-1354,938,-7776,529,566,1
8576,-1388,884,-7810,517,430,-11
8586,-1492,866,-7720,421,319,-45
8596,-1486,914,-7862,300,288,-68
8606,-1504,882,-7842,201,370,-77
8616,-1512,914,-7772,151,511,-96
8626,-1506,934,-7848,146,662,-75
8636,-1410,950,-7716,198,758,-59
8646,-1402,1004,-7810,258,743,-19
8656,-1414,944,-7664,314,614,-3
8666,-1412,958,-7728,345,419,-62
8676,-1590,922,-7638,346,263,-124
8686,-1512,930,-7746,347,206,-112
8696,-1652,946,-7652,318,300,-89
8706,-1544,964,-7772,311,469,-3
8716,-1496,928,-7780,302,637,89
8726,-1448,942,-7788,302,692,160
8736,-1508,936,-7730,295,610,221
8747,-1458,972,-7816,278,436,301
8757,-1490,922,-7864,240,244,358
8767,-1512,916,-7838,196,117,337
8777,-1556,946,-7856,169,105,264
8787,-1584,942,-7896,175,195,193
8797,-1540,920,-7902,177,349,169
8807,-1496,952,-7898,162,505,172
8817,-1434,972,-7888,160,603,195
8827,-1372,984,-7878,127,597,219
8837,-1388,1006,-7872,89,481,217
8847,-1340,952,-7880,80,348,206
8857,-1350,1010,-7996,103,256,214
8867,-1356,1000,-7966,113,239,206
8877,-1294,978,-7914,100,264,225
8887,-1182,1016,-7980,31,288,221
8897,-1216,1016,-7964,-123,259,181
8907,-1200,1084,-7916,-306,177,183
8918,-1262,1072,-7868,-524,83,252
8928,-1128,1132,-7968,-785,13,394
8938,-1008,1190,-7954,-1123,-40,579
8948,-472,1172,-7978,-2426,-503,1115
8958,354,1346,-7720,-4073,-1312,1796
8968,1858,1450,-7268,-6724,-2964,2752
8978,2884,1568,-6568,-10310,-6084,3405
8988,4178,1922,-5584,-13917,-11020,3116
8998,4728,2432,-4560,-16585,-17573,1390
9008,4086,2826,-3802,-17879,-25619,-1793
9018,2206,2728,-2974,-17662,-32430,-5911
9028,-368,2232,-1746,-16168,-32430,-10820
9038,-1742,1790,-246,-13820,-32430,-16746
9048,-2176,554,916,-10851,-32430,-23516
9058,-4724,-528,2264,-7610,-32430,-30595
9068,-6676,-2334,3164,-5388,-32430,32764
9078,-8358,-3738,3830,-3263,-32430,32764
9088,-10790,-5080,3750,-2564,-32430,32764
9098,-12582,-5136,5316,-2008,-32430,32764
9108,-13992,-4088,5444,-1694,-32430,32764
9118,-14478,-4378,6130,-850,-32430,32764
9128,-14102,-4268,5938,268,-24979,-24818
9138,-12426,-5366,5646,1377,-13614,-14918
9148,-12560,-4962,5420,1544,-1205,-4980
9158,-10622,-5796,5054,1426,7276,3100
9168,-10294,-5206,4720,516,13821,8852
9178,-9000,-4694,4554,-880,18263,12077
9188,-7840,-3666,3826,-2543,19952,13337
9198,-7082,-2728,3294,-2964,21006,12905
9208,-6724,-1822,2788,-2778,18423,11223
9218,-6268,-1064,2500,-2026,13576,8978
9228,-6016,-908,2120,-726,8161,6325
9238,-6108,-1050,2056,391,3499,3661
9248,-6466,-1386,1782,1965,410,1093
9259,-6996,-1524,1412,2779,-2008,-965
9269,-7388,-1636,1202,3385,-3714,-2201
9279,-8030,-1788,1110,3358,-4939,-2620
9289,-8638,-1882,1156,2936,-4232,-2275
9299,-8772,-1722,984,2259,-2224,-1438
9309,-8474,-1792,1132,1701,130,-392
9319,-8228,-1672,1290,1114,1663,610
9329,-7760,-1706,1386,805,2588,1431
9339,-7674,-1698,1412,882,2751,1840
9349,-7590,-1870,1466,992,2213,1842
9359,-7666,-1664,1574,803,1297,1692
9369,-7956,-1510,1614,583,520,1496
9379,-8428,-1420,1558,426,547,1423
9389,-9106,-1308,1592,377,1165,1638
9399,-9350,-1368,1564,423,2585,2179
9409,-9608,-1390,1588,486,4713,3073
9419,-9500,-1464,1516,691,10058,5228
9430,-8802,-1554,1302,636,12786,6385
9440,-8266,-1378,1096,324,14757,7363
9450,-7872,-1130,840,161,15794,7818
9460,-7230,-756,412,95,16138,7697
9470,-6948,-312,56,211,15916,7072
9480,-6794,36,-222,631,15353,6204
9490,-6978,86,-620,1249,14699,5217
9500,-6978,292,-824,1932,14343,4409
9510,-7248,274,-1160,2730,14213,3818
9520,-7540,312,-1348,3435,14616,3589
9530,-7844,-138,-1626,4097,15719,3847
9540,-7380,-276,-2048,4337,17232,4665
9550,-7050,-234,-2532,3823,18491,5577
9560,-6560,-118,-2900,2823,19158,6056
9570,-6078,92,-3182,1587,19169,5941
9580,-6060,220,-3574,414,18751,5356
9590,-6092,488,-3942,-620,18332,4709
9600,-6234,564,-4068,-1234,17977,4324
9610,-6260,834,-4046,-1487,18650,4293
9620,-5612,1160,-4248,-1443,19862,4451
9630,-4686,956,-4680,-1210,20690,4430
9640,-3960,1200,-4928,-1100,20553,4070
9650,-3438,1552,-5246,-1127,19481,3421
9660,-3114,1556,-5860,-400,17408,2584
9670,-3066,1618,-6206,86,14233,1889
9680,-3186,1566,-6432,724,11442,1513
9690,-3228,1544,-6718,1320,9406,1262
9700,-3186,1432,-6952,1864,8153,1056
9710,-3310,1288,-6982,1945,7518,907
9720,-3246,1116,-7018,1903,7351,798
9730,-3108,1240,-7190,1795,6917,733
9740,-3244,1440,-7366,1715,6343,661
9750,-2748,1346,-7504,1488,5927,636
9760,-2576,1168,-7494,1048,5508,594
9771,-2928,1098,-7582,1240,4190,398
9781,-2812,1158,-7766,1513,4158,364
9791,-2558,1202,-7778,1769,4028,392
9801,-2506,1030,-7688,2002,3505,485
9811,-2142,1012,-7732,1657,2739,562
9821,-2142,1012,-7732,1657,2739,562
9831,-2084,1054,-7796,1504,2465,453
9841,-2224,1096,-7862,1383,1110,178
9851,-2418,1074,-7824,1424,491,79
9861,-2622,852,-7712,1668,251,15
9871,-2868,968,-7572,2036,255,31
9881,-2700,888,-7512,2358,570,93
9891,-2542,838,-7462,2606,1073,64
9901,-2204,696,-7488,2670,1506,-36
9911,-2156,706,-7478,2459,1844,-181
9921,-2050,626,-7598,2161,1836,-385
9931,-2118,630,-7648,1816,1498,-552
9942,-2198,584,-7662,1487,992,-602
9952,-2400,572,-7626,1247,491,-544
9962,-2610,560,-7632,1029,233,-420
9972,-2728,494,-7604,917,238,-296
9982,-2882,436,-7674,862,483,-205
9992,-2892,316,-7746,845,835,-182
10002,-2870,322,-7794,876,1279,-241
10012,-2710,304,-7888,860,1718,-363
10022,-2526,346,-7936,755,1981,-407
10032,-2420,402,-7868,577,1930,-368
10042,-2330,512,-8018,352,1659,-251
10052,-2348,494,-7892,135,1299,-125
10062,-2276,462,-7988,163,961,-47
10072,-2316,438,-7872,268,642,49
10082,-2328,438,-7838,370,383,155
10092,-2316,352,-7788,453,103,159
10102,-2376,346,-7760,444,-54,20
10112,-2390,400,-7714,332,-13,-130
10122,-2350,472,-7624,201,117,-164
10132,-2344,526,-7556,51,245,-108
10142,-2352,564,-7542,-51,433,-26
10152,-2208,596,-7542,-59,637,40
10162,-2160,554,-7464,33,756,103
10172,-2152,544,-7518,186,767,125
10182,-2222,462,-7556,323,640,70
10192,-2256,448,-7530,403,436,-30
10202,-2390,496,-7536,450,267,-141
10212,-2368,562,-7540,474,223,-173
10222,-2374,578,-7586,517,339,-130
10232,-2302,592,-7556,613,552,-62
10242,-2262,618,-7664,742,778,0
10252,-2208,572,-7700,895,922,60
10262,-2162,438,-7728,1057,921,105
10272,-2174,412,-7758,1122,767,120
10283,-2146,278,-7860,938,308,16
10293,-2408,298,-7708,674,147,-38
10303,-2388,382,-7724,370,172,-38
10313,-2216,430,-7814,142,441,-14
10323,-2256,486,-7782,-24,726,8
10333,-2230,524,-7676,-89,897,54
10343,-2172,508,-7718,-49,899,79
10353,-2184,484,-7714,33,723,81
10363,-2172,414,-7674,113,503,45
10373,-2190,444,-7602,147,338,13
10383,-2198,492,-7564,121,273,41
10393,-2176,456,-7574,68,325,83
10403,-2200,472,-7666,35,422,55
10413,-2198,542,-7632,64,497,3
10423,-2164,516,-7628,160,532,-26
10433,-2148,578,-7520,310,517,-29
10443,-2104,562,-7554,446,463,-47
10454,-2064,508,-7526,522,405,-64
10464,-2130,542,-7532,536,352,-76
10474,-2142,494,-7612,493,309,-58
10484,-2156,500,-7570,429,321,-5
10494,-2120,438,-7636,404,380,38
10504,-2158,482,-7628,410,429,33
10514,-2164,504,-7668,433,488,26
10524,-2128,526,-7614,471,531,32
10534,-2060,522,-7664,491,503,17
10544,-1996,562,-7690,476,426,-7
10554,-2058,506,-7738,429,331,-34
10564,-2092,466,-7740,354,214,-67
10574,-2168,458,-7790,283,142,-54
10584,-2162,466,-7742,233,159,-31
10594,-2142,458,-7718,215,265,-19
10604,-2162,454,-7768,220,423,-10
10614,-2094,472,-7700,234,549,-27
10624,-2082,524,-7694,292,594,-31
10634,-2078,488,-7686,392,542,-44
10644,-2108,454,-7710,470,407,-107
10654,-2088,466,-7750,532,281,-146
10664,-2088,440,-7702,561,219,-165
10674,-2154,456,-7726,506,200,-208
10684,-2194,444,-7658,419,251,-231
10694,-2216,518,-7634,351,346,-215
10704,-2210,468,-7606,399,585,-152
10714,-2210,468,-7606,399,585,-152
10724,-2154,390,-7692,704,705,-73
10734,-2100,386,-7676,848,667,-65
10744,-2098,334,-7716,964,590,-89
10754,-2108,308,-7746,1026,520,-139
10764,-2132,308,-7742,994,467,-188
10774,-2140,304,-7794,880,430,-210
10784,-2162,360,-7808,726,413,-202
